{
  "resourceType" : "Bundle",
  "id" : "processedbundleflucelvaxES",
  "meta" : {
    "profile" : ["http://hl7.org/fhir/uv/emedicinal-product-info/StructureDefinition/Bundle-uv-epi"]
  },
  "language" : "es",
  "identifier" : {
    "system" : "https://www.gravitatehealth.eu/sid/doc",
    "value" : "EU/1/18/1326/001"
  },
  "type" : "document",
  "timestamp" : "2023-04-25T11:55:27Z",
  "entry" : [{
    "fullUrl" : "http://hl7.eu/fhir/ig/gravitate-health/Composition/composition-proc-es-e8bd725f64067aeae7994e2b56cd71c1",
    "resource" : {
      "resourceType" : "Composition",
      "id" : "composition-proc-es-e8bd725f64067aeae7994e2b56cd71c1",
      "meta" : {
        "profile" : ["http://hl7.org/fhir/uv/emedicinal-product-info/StructureDefinition/Composition-uv-epi"]
      },
      "language" : "es",
      "text" : {
        "status" : "extensions",
        "div" : "<div xmlns=\"http://www.w3.org/1999/xhtml\" xml:lang=\"es\" lang=\"es\"><a name=\"Composition_composition-proc-es-e8bd725f64067aeae7994e2b56cd71c1\"> </a><p class=\"res-header-id\"><b>Generated Narrative: Composition composition-proc-es-e8bd725f64067aeae7994e2b56cd71c1</b></p><a name=\"composition-proc-es-e8bd725f64067aeae7994e2b56cd71c1\"> </a><a name=\"hccomposition-proc-es-e8bd725f64067aeae7994e2b56cd71c1\"> </a><div style=\"display: inline-block; background-color: #d9e0e7; padding: 6px; margin: 4px; border: 1px solid #8da1b4; border-radius: 5px; line-height: 60%\"><p style=\"margin-bottom: 0px\">Language: es</p><p style=\"margin-bottom: 0px\">Profile: <a href=\"https://build.fhir.org/ig/HL7/emedicinal-product-info/StructureDefinition-Composition-uv-epi.html\">Composition (ePI)</a></p></div><blockquote><p><b>HtmlElementLink</b></p><ul><li>elementClass: indication</li><li>concept: <span title=\"Codes:{https://icpc2.icd.com/ B90}\">HIV-infection/AIDS</span></li></ul></blockquote><blockquote><p><b>HtmlElementLink</b></p><ul><li>elementClass: pregnancyCategory</li><li>concept: <span title=\"Codes:{https://icpc2.icd.com/ W78}\">Pregnancy</span></li></ul></blockquote><blockquote><p><b>HtmlElementLink</b></p><ul><li>elementClass: breastfeedingCategory</li><li>concept: <span title=\"Codes:{http://snomed.info/sct 69840006}\">Normal breast feeding (finding)</span></li></ul></blockquote><p><b>identifier</b>: <code>https://spor.ema.europa.eu/rmswi/</code>/ESprocessed163dd4e7fa7eed938c8bb01cecedf200</p><p><b>status</b>: Final</p><p><b>type</b>: <span title=\"Codes:{https://spor.ema.europa.eu/rmswi/ 100000155538}\">Package Leaflet</span></p><p><b>category</b>: <span title=\"Codes:{http://hl7.eu/fhir/ig/gravitate-health/CodeSystem/epicategory-cs P}\">Processed</span></p><p><b>date</b>: 2023-10-26 15:15:46+0000</p><p><b>author</b>: <a href=\"Bundle-bundlepackageleaflet-en-04c9bd6fb89d38b2d83eced2460c4dc1.html#Organization_mah-45fe50eae508b5755dd140ab2093eb5e\">Organization Seqirus Netherlands B.V.</a></p><p><b>title</b>: TEST PURPOSES ONLY - Flucelvax</p><h3>Attesters</h3><table class=\"grid\"><tr><td style=\"display: none\">-</td><td><b>Mode</b></td><td><b>Time</b></td></tr><tr><td style=\"display: none\">*</td><td><span title=\"Codes:{http://hl7.org/fhir/composition-attestation-mode official}\">Official</span></td><td>2023-10-26 15:15:46+0000</td></tr></table></div>"
      },
      "extension" : [{
        "extension" : [{
          "url" : "elementClass",
          "valueString" : "indication"
        },
        {
          "url" : "concept",
          "valueCodeableReference" : {
            "concept" : {
              "coding" : [{
                "system" : "https://icpc2.icd.com/",
                "code" : "B90",
                "display" : "HIV-infection/AIDS"
              }]
            }
          }
        }],
        "url" : "http://hl7.eu/fhir/ig/gravitate-health/StructureDefinition/HtmlElementLink"
      },
      {
        "extension" : [{
          "url" : "elementClass",
          "valueString" : "pregnancyCategory"
        },
        {
          "url" : "concept",
          "valueCodeableReference" : {
            "concept" : {
              "coding" : [{
                "system" : "https://icpc2.icd.com/",
                "code" : "W78",
                "display" : "Pregnancy"
              }]
            }
          }
        }],
        "url" : "http://hl7.eu/fhir/ig/gravitate-health/StructureDefinition/HtmlElementLink"
      },
      {
        "extension" : [{
          "url" : "elementClass",
          "valueString" : "breastfeedingCategory"
        },
        {
          "url" : "concept",
          "valueCodeableReference" : {
            "concept" : {
              "coding" : [{
                "system" : "http://snomed.info/sct",
                "code" : "69840006",
                "display" : "Normal breast feeding (finding)"
              }]
            }
          }
        }],
        "url" : "http://hl7.eu/fhir/ig/gravitate-health/StructureDefinition/HtmlElementLink"
      }],
      "identifier" : [{
        "system" : "https://spor.ema.europa.eu/rmswi/",
        "value" : "ESprocessed163dd4e7fa7eed938c8bb01cecedf200"
      }],
      "status" : "final",
      "type" : {
        "coding" : [{
          "system" : "https://spor.ema.europa.eu/rmswi/",
          "code" : "100000155538"
        }],
        "text" : "Package Leaflet"
      },
      "category" : [{
        "coding" : [{
          "system" : "http://hl7.eu/fhir/ig/gravitate-health/CodeSystem/epicategory-cs",
          "code" : "P",
          "display" : "Processed"
        }]
      }],
      "subject" : [{
        "reference" : "MedicinalProductDefinition/mpb6ced64d25ea2c8da6c6099386f14db1"
      }],
      "date" : "2023-10-26T15:15:46Z",
      "author" : [{
        "reference" : "Organization/mah-45fe50eae508b5755dd140ab2093eb5e"
      }],
      "title" : "TEST PURPOSES ONLY - Flucelvax",
      "attester" : [{
        "mode" : {
          "coding" : [{
            "system" : "http://hl7.org/fhir/composition-attestation-mode",
            "code" : "official"
          }]
        },
        "time" : "2023-10-26T15:15:46Z"
      }],
      "section" : [{
        "title" : "B. Package Leaflet",
        "code" : {
          "coding" : [{
            "system" : "https://spor.ema.europa.eu/rmswi/",
            "code" : "100000155538"
          }],
          "text" : "B. PACKAGE LEAFLET"
        },
        "text" : {
          "status" : "additional",
          "div" : "<div xmlns=\"http://www.w3.org/1999/xhtml\">unavailable</div>"
        },
        "emptyReason" : {
          "coding" : [{
            "system" : "http://terminology.hl7.org/CodeSystem/list-empty-reason",
            "code" : "unavailable"
          }]
        },
        "section" : [{
          "title" : "Package leaflet: Information for the user",
          "code" : {
            "coding" : [{
              "system" : "https://spor.ema.europa.eu/rmswi/",
              "code" : "100000155538"
            }],
            "text" : "Prospecto: información para el usuario"
          },
          "text" : {
            "status" : "additional",
            "div" : "<div xmlns=\"http://www.w3.org/1999/xhtml\"><p><strong><span>Prospecto: información para el usuario</span></strong></p><p><strong><span>Flucelvax Tetra - suspensión inyectable en jeringa precargada</span></strong></p><p><span>Vacuna contra la gripe (antígeno de superficie, inactivado, preparada en cultivos celulares)</span></p><p><strong><span>Lea todo el prospecto detenidamente antes de empezar a recibir este medicamento, porque contiene</span></strong> <strong><span>información importante para usted.</span></strong></p><p><span>- Conserve este prospecto, ya que puede tener que volver a leerlo.</span></p><p><span>- Si tiene alguna duda, consulte a su médico, farmacéutico o enfermero.</span></p><p><span>- Si experimenta efectos adversos, consulte a su médico, farmacéutico o enfermero, incluso si se trata de efectos adversos que no aparecen en este prospecto. Ver sección 4.</span></p></div>"
          }
        },
        {
          "title" : "What is in this leaflet",
          "code" : {
            "coding" : [{
              "system" : "https://spor.ema.europa.eu/rmswi/",
              "code" : "100000155538"
            }],
            "text" : "Contenido del prospecto"
          },
          "text" : {
            "status" : "additional",
            "div" : "<div xmlns=\"http://www.w3.org/1999/xhtml\"><p><strong><span>Contenido del prospecto</span></strong></p><p><span>1.\u00a0\u00a0\u00a0 Qué es Flucelvax Tetra y para qué se utiliza</span></p><p><span>2.\u00a0\u00a0\u00a0 Qué necesita saber antes de empezar a recibir Flucelvax Tetra</span></p><p><span>3.\u00a0\u00a0\u00a0 Cómo se administra Flucelvax Tetra</span></p><p><span>4.\u00a0\u00a0\u00a0 Posibles efectos adversos</span></p><p><span>5.\u00a0\u00a0\u00a0 Conservación de Flucelvax Tetra</span></p><p><span>6.\u00a0\u00a0\u00a0 Contenido del envase e información adicional</span></p></div>"
          }
        },
        {
          "title" : "1. What Flucelvax is and what it is used for",
          "code" : {
            "coding" : [{
              "system" : "https://spor.ema.europa.eu/rmswi/",
              "code" : "100000155538"
            }],
            "text" : "1. Qué es Flucelvax Tetra y para qué se utiliza"
          },
          "text" : {
            "status" : "additional",
            "div" : "<div xmlns=\"http://www.w3.org/1999/xhtml\"><p class=\"indication\"><span>Flucelvax Tetra es una vacuna contra la gripe. Flucelvax Tetra se prepara en cultivos celulares y, por lo tanto, no contiene huevo.</span></p><p><span>Cuando una persona recibe la vacuna, el sistema inmunitario (el sistema de defensa natural del organismo) producirá su propia protección frente al virus de la gripe. Ninguno de los componentes de la vacuna puede causar la gripe.</span></p><p><span>Flucelvax Tetra se usa para prevenir la gripe en adultos y niños a partir de los 2 años de edad.</span></p><p><span>La vacuna va dirigida a cuatro cepas del virus de la gripe siguiendo las recomendaciones de la</span> <span>Organización Mundial de la Salud para la campaña</span> <span>2023/2024.</span></p></div>"
          }
        },
        {
          "title" : "2. What you need to know before you take Flucelvax",
          "code" : {
            "coding" : [{
              "system" : "https://spor.ema.europa.eu/rmswi/",
              "code" : "100000155538"
            }],
            "text" : "2. Qué necesita saber antes de empezar a recibir Flucelvax Tetra"
          },
          "text" : {
            "status" : "additional",
            "div" : "<div xmlns=\"http://www.w3.org/1999/xhtml\"><p><strong><span>No debe recibir Flucelvax Tetra:</span></strong></p><p><span>Si es alérgico a:</span></p><ul><li><span>los principios activos o alguno de los demás componentes de esta vacuna (incluidos en la sección 6).</span></li><li><span>la beta-propiolactona, al bromuro de cetiltrimetilamonio o al polisorbato 80, que son residuos del proceso de fabricación que pueden estar presentes en cantidades mínimas.</span></li></ul><p><strong><span>Advertencias y precauciones</span></strong></p><p><span>Consulte a su médico, farmacéutico o enfermero antes de empezar a recibir Flucelvax Tetra.</span></p><p><span>ANTES DE vacunarse</span></p><ul><li><span>su médico o enfermero comprobará la fácil disponibilidad de tratamiento médico y supervisión adecuados en el caso raro de que se produjera una reacción anafiláctica (una reacción alérgica muy grave con síntomas como dificultad para respirar, mareos, pulso débil y rápido y erupción cutánea) después de la administración. Esta reacción puede presentarse con Flucelvax Tetra, al igual que con todas las vacunas que se inyectan.</span></li><li><span>debe informar a su médico si tiene una enfermedad aguda que cursa con fiebre. Su médico puede decidir retrasar su vacunación hasta que la fiebre haya desaparecido.</span></li><ul><li><span>debe informar a su médico si su sistema inmunitario está comprometido o si está recibiendo un tratamiento que afecte al mismo, por ejemplo, medicamento contra el cáncer (quimioterapia) o corticoides (ver sección “Otros medicamentos y Flucelvax Tetra”).</span></li></ul><li><span>debe informar a su médico si tiene un problema de sangrado o le salen moretones\u00a0\u00a0\u00a0\u00a0 fácilmente.</span></li><li><span>puede desmayarse después de la inyección con una aguja, o incluso antes, por lo tanto, informe a su médico o enfermero si se ha desmayado anteriormente con alguna inyección.</span></li></ul><p><span>Como ocurre con todas las vacunas, Flucelvax Tetra puede no proteger completamente a todas las personas que son vacunadas.</span></p><p><strong><span>Otros medicamentos y Flucelvax Tetra</span></strong></p><p><span>Informe a su médico o enfermero si está utilizando, ha utilizado recientemente o pudiera tener que utilizar cualquier otro medicamento, incluso los adquiridos sin receta, o si ha recibido recientemente alguna otra vacuna.</span></p><p><span>Flucelvax Tetra se puede administrar al mismo tiempo que otras vacunas.</span></p><div class=\"pregnancyCategory\"><p><strong><span>Embarazo y lactancia</span></strong></p><p><span>Embarazo:</span></p><p><span>Si está embarazada, cree que podría estar embarazada o tiene intención de quedarse embarazada, consulte a su médico. Las vacunas antigripales se pueden administrar en cualquier trimestre del embarazo.</span></p></div><div class=\"breastfeedingCategory\"><p><span>Lactancia:</span></p><p><span>El uso de Flucelvax Tetra durante la lactancia no ha sido estudiado. Flucelvax Tetra se puede administrar durante la lactancia.</span></p></div><p><strong><span>Conducción y uso de máquinas</span></strong></p><p><span>La influencia de Flucelvax Tetra sobre la capacidad para conducir y utilizar máquinas es nula o insignificante.</span></p><p><strong><span>Flucelvax Tetra contiene cloruro de sodio y cloruro de potasio</span></strong></p><p><span>Esta vacuna contiene menos de 1 mmol de sodio (23 mg) por dosis; esto es, esencialmente “exento de sodio”.</span></p><p><span>Esta vacuna contiene potasio, menos de 1 mmol (39 mg) por dosis; esto es, esencialmente “exento de potasio”.</span></p></div>"
          }
        },
        {
          "title" : "3. How to take Flucelvax",
          "code" : {
            "coding" : [{
              "system" : "https://spor.ema.europa.eu/rmswi/",
              "code" : "100000155538"
            }],
            "text" : "3. Cómo se administra Flucelvax Tetra"
          },
          "text" : {
            "status" : "additional",
            "div" : "<div xmlns=\"http://www.w3.org/1999/xhtml\"><p><span>Su médico o enfermero le administrará Flucelvax Tetra en forma de inyección en el músculo de la parte superior del brazo (músculo deltoides).</span></p><p><span>Adultos y niños a partir de 2 años de edad:</span></p><p><span>Una dosis de 0,5 ml</span></p><p><span>Si su hijo es menor de 9 años y nunca ha sido vacunado contra la gripe, se le debe administrar una segunda dosis después, de al menos, 4 semanas.</span></p></div>"
          }
        },
        {
          "title" : "4. Possible side effects",
          "code" : {
            "coding" : [{
              "system" : "https://spor.ema.europa.eu/rmswi/",
              "code" : "100000155538"
            }],
            "text" : "4. Posibles efectos adversos"
          },
          "text" : {
            "status" : "additional",
            "div" : "<div xmlns=\"http://www.w3.org/1999/xhtml\"><p><span>Al igual que todos los medicamentos, este medicamento puede producir efectos adversos, aunque no todas las personas los sufran.</span></p><p><span>Los siguientes efectos adversos se han notificado durante los ensayos clínicos y durante el uso general:</span></p><p><strong><span>Efectos adversos muy graves</span></strong></p><p><span>Consulte inmediatamente con su médico o acuda al servicio de urgencias del hospital más cercano si presenta el siguiente efecto adverso – puede necesitar urgentemente atención médica u hospitalización:</span></p><p><span>Dificultad para respirar, mareos, pulso débil y rápido junto con erupción cutánea, que son los síntomas de una reacción anafiláctica (una reacción alérgica muy grave)</span></p><p><strong><span>Efectos adversos graves</span></strong></p><p><span>Informe inmediatamente a su médico si presenta cualquiera de los efectos adversos siguientes – puede necesitar atención médica:</span></p><ul><li><span>Se siente débil, tiene dificultades para moverse o presenta entumecimiento u hormigueo en las extremidades. Estos pueden ser síntomas del síndrome de Guillain-Barré (SGB), una enfermedad autoinmune causada por el propio sistema inmunitario del organismo</span></li><li><span>Hinchazón extensa del miembro en el que se ha inyectado</span></li></ul><p><strong><span>Efectos adversos leves</span></strong></p><p><span>Muy frecuentes</span> <span>(pueden afectar a más de 1 de cada 10 personas):</span></p><ul><li><span>Dolor en la zona de inyección, cardenales, enrojecimiento y endurecimiento o hinchazón en la zona de inyección</span></li><li><span>Dolor de cabeza</span></li><li><span>Dolor muscular</span></li><li><span>Cansancio</span></li><li><span>Pérdida de apetito</span></li><li><span>Irritabilidad (notificada solo en niños de 2 a &lt; 6 años)</span></li><li><span>Somnolencia (notificada solo en niños de 2 a &lt; 6 años)</span></li></ul><p><span>En los pacientes de edad avanzada fueron frecuentes el endurecimiento o la hinchazón en el lugar de la inyección, el dolor de cabeza, el dolor muscular y la fatiga.</span></p><p><span>Los cardenales en el lugar de la inyección fueron frecuentes en adultos, ancianos y niños de 9 a &lt; 18 años.</span></p><p><span>El dolor de cabeza fue frecuente en ancianos.</span></p><p><span>La pérdida de apetito fue frecuente en adultos, ancianos y niños de 9 a &lt; 18 años.</span></p><p><span>Frecuentes</span> <span>(pueden afectar hasta 1 de cada 10 personas):</span></p><ul><li><span>Náuseas, vómitos, diarrea</span></li><li><span>Dolor articular</span></li><li><span>Tiritona</span></li><li><span>Cambios en los hábitos alimenticios (notificados solo en niños de 2 a &lt; 6 años)</span></li><li><span>Fiebre (&gt; 38 °C)</span></li></ul><p><span>Los vómitos fueron poco frecuentes en los pacientes de edad avanzada</span></p><p><span>La fiebre fue infrecuente en adultos y ancianos</span></p><p><span>Frecuencia no conocida</span> <span>(no puede estimarse a partir de los datos disponibles):</span></p><ul><li><span>Sensación de hormigueo y</span> <span>entumecimiento (parestesia)</span></li><li><span>Reacciones cutáneas generalizadas incluyendo picor, ampollas en la piel (prurito, urticaria) o erupción cutánea inespecífica</span></li></ul><p><strong><span>Comunicación de efectos adversos</span></strong></p><p><span>Si experimenta cualquier tipo de efecto adverso, consulte a su profesional sanitario, incluso si se trata de posibles efectos adversos que no aparecen en este prospecto.</span> <span>También puede comunicarlos directamente a través del Sistema Español de Farmacovigilancia de Medicamentos de Uso Humano en</span> <a href=\"http://www.notificaRAM.es\"><span>www.notificaRAM.es</span></a><span>.</span> <span>M</span><span>ediante la comunicación de efectos adversos usted puede contribuir a proporcionar más información sobre la seguridad de este medicamento.</span></p></div>"
          }
        },
        {
          "title" : "5. How to store Flucelvax",
          "code" : {
            "coding" : [{
              "system" : "https://spor.ema.europa.eu/rmswi/",
              "code" : "100000155538"
            }],
            "text" : "5. Conservación de Flucelvax Tetra"
          },
          "text" : {
            "status" : "additional",
            "div" : "<div xmlns=\"http://www.w3.org/1999/xhtml\"><p><span>Mantener este medicamento fuera de la vista y del alcance de los niños.</span></p><p><span>Conservar en nevera (entre 2 °C y 8 °C). No congelar.</span></p><p><span>Mantener la jeringa precargada en el embalaje exterior para protegerla de la luz.</span></p><p><span>No utilice esta vacuna después de la fecha de caducidad que aparece en la etiqueta y en la caja después de EXP/CAD. La fecha de caducidad es el último día del mes que se indica.</span></p><p><span>Los medicamentos no se deben tirar por los desagües ni a la basura. Pregunte a su farmacéutico cómo deshacerse de los envases y de los medicamentos que ya no necesita. De esta forma, ayudará a proteger el medio ambiente.</span></p></div>"
          }
        },
        {
          "title" : "6. Contents of the pack and other information",
          "code" : {
            "coding" : [{
              "system" : "https://spor.ema.europa.eu/rmswi/",
              "code" : "100000155538"
            }],
            "text" : "6. Contenido del envase e información adicional"
          },
          "text" : {
            "status" : "additional",
            "div" : "<div xmlns=\"http://www.w3.org/1999/xhtml\"><p><span>\u00a0</span></p><p><strong><span>Composición de Flucelvax Tetra</span></strong></p><ul><li><span>Los principios activos son antígenos de superficie del virus de la gripe (hemaglutinina y neuraminidasa), inactivados, de las siguientes cepas*:</span></li></ul><p><a name=\"_Hlk66283421\"/><a name=\"_Hlk66283267\"><span>Cepa similar a</span> <span>A/Wisconsin/67/2022 (H1N1)pdm09</span> <span>(A/Georgia/12/2022 CVR-167)</span></a></p><p><span>15 microgramos HA**</span></p><p><a name=\"_Hlk66283440\"/><a name=\"_Hlk66283292\"><span>Cepa similar a</span> <span>A/Darwin/6/2021 (H3N2)</span> <span>(A/Darwin/11/2021, wild type)</span></a></p><p><span>15 microgramos HA**</span></p><p><span>Cepa similar a B/Austria/1359417/2021</span> <span>(</span><span>Singapore/WUH4618/2021</span><span>, wild type</span><span>)</span> <span>15 microgramos HA**</span></p><p><span>Cepa similar a B/Phuket/3073/2013 (B/Singapore/INFTT-16-0610/2016, wild type)</span></p><p><span>15 microgramos HA**</span></p><p><span>por dosis de 0,5 ml</span></p><p><span>……………………………………….</span></p><p><span>*</span><span>\u00a0\u00a0\u00a0\u00a0\u00a0\u00a0\u00a0\u00a0\u00a0\u00a0\u00a0\u00a0\u00a0</span> <span>propagadas en células Madin Darby Canine Kidney (MDCK) (se trata de un cultivo celular especial en el que crece el virus de la gripe)</span></p><p><span>** hemaglutinina</span></p><p><span>Esta vacuna cumple con la recomendación de la Organización Mundial de la Salud (OMS) (hemisferio norte) y con la recomendación de la UE para la CAMPAÑA 2023/2024.</span></p><ul><li><span>Los demás componentes son: cloruro de sodio, cloruro de potasio, cloruro de magnesio hexahidrato, fosfato disódico dihidrato, dihidrogenofosfato de potasio y agua para preparaciones inyectables.</span></li></ul><p><strong><span>Aspecto del producto y contenido del envase</span></strong></p><p><span>Flucelvax Tetra es una suspensión inyectable en jeringa precargada (jeringa lista para usar). Flucelvax Tetra es una suspensión de transparente a ligeramente opalescente.</span></p><p><span>Cada jeringa individual contiene 0,5 ml de suspensión inyectable.</span></p><p><span>Flucelvax Tetra está disponible en envases de 1 jeringa precargada con o sin aguja o 10 jeringas</span></p><p><span>precargadas con o sin agujas.</span></p><p><span>Puede que solamente estén comercializados algunos tamaños de envases.</span></p><p><strong><span>Titular de la autorización de comercialización y responsable de la fabricación</span></strong></p><p><span>Seqirus Netherlands B.V.</span></p><p><span>Paasheuvelweg 28</span></p><p><span>1105BJ Amsterdam</span></p><p><span>Países Bajos</span></p><p><span>Pueden solicitar más información respecto a este medicamento dirigiéndose al representante local del titular de la autorización de comercialización:</span></p><p><span>Seqirus Spain, S.L., Barcelona</span></p><p><span>Tel: 937 817 884</span></p><p><strong><span>Fecha de la última revisión de este prospecto: 07/2023</span></strong></p><p><strong><span>Otras fuentes de información</span></strong></p><p><span>La información detallada de este medicamento está disponible en la página web de la Agencia Europea de Medicamentos:</span> <a href=\"http://www.ema.europa.eu/\"><span>http://www.ema.europa.eu/.</span></a></p><p><span>------------------------------------------------------------------------------------------------------------- Esta información está destinada únicamente a profesionales del sector sanitario:</span></p><p><span>Debe estar siempre fácilmente disponible el tratamiento médico y la supervisión apropiados en caso de un episodio anafiláctico, que puede aparecer raramente después de administrar la vacuna.</span></p><p><span>Agitar antes de usar. Después de agitar, el aspecto normal de la vacuna es una suspensión de transparente a ligeramente opalescente.</span></p><p><span>Se debe inspeccionar visualmente la vacuna en busca de partículas extrañas o cambios de color antes de la administración. Si se observan partículas extrañas y/o cualquier variación del aspecto físico, no administre la vacuna.</span></p></div>"
          }
        }]
      }]
    }
  },
  {
    "fullUrl" : "http://hl7.eu/fhir/ig/gravitate-health/Ingredient/ingredient-for-2e8cb2387c664fb619f6b8914767d38f",
    "resource" : {
      "resourceType" : "Ingredient",
      "id" : "ingredient-for-2e8cb2387c664fb619f6b8914767d38f",
      "meta" : {
        "profile" : ["http://hl7.org/fhir/uv/emedicinal-product-info/StructureDefinition/Ingredient-uv-epi"]
      },
      "text" : {
        "status" : "generated",
        "div" : "<div xmlns=\"http://www.w3.org/1999/xhtml\"><a name=\"Ingredient_ingredient-for-2e8cb2387c664fb619f6b8914767d38f\"> </a><p class=\"res-header-id\"><b>Generated Narrative: Ingredient ingredient-for-2e8cb2387c664fb619f6b8914767d38f</b></p><a name=\"ingredient-for-2e8cb2387c664fb619f6b8914767d38f\"> </a><a name=\"hcingredient-for-2e8cb2387c664fb619f6b8914767d38f\"> </a><div style=\"display: inline-block; background-color: #d9e0e7; padding: 6px; margin: 4px; border: 1px solid #8da1b4; border-radius: 5px; line-height: 60%\"><p style=\"margin-bottom: 0px\"/><p style=\"margin-bottom: 0px\">Profile: <a href=\"https://build.fhir.org/ig/HL7/emedicinal-product-info/StructureDefinition-Ingredient-uv-epi.html\">Ingredient (ePI)</a></p></div><p><b>identifier</b>: <code>https://gsrs.ncats.nih.gov/ginas/app/beta</code>/9V4SVN4JQV\u00a0(use:\u00a0official,\u00a0)</p><p><b>status</b>: Active</p><p><b>for</b>: </p><ul><li><a href=\"Bundle-bundlepackageleaflet-en-04c9bd6fb89d38b2d83eced2460c4dc1.html#ManufacturedItemDefinition_mid-04c9bd6fb89d38b2d83eced2460c4dc1\">ManufacturedItemDefinition: identifier = https://spor.ema.europa.eu/pmswi#EU/1/18/1326/001\u00a0(use:\u00a0official,\u00a0); status = active; manufacturedDoseForm = suspension for injection in pre-filled syringe; unitOfPresentation = Syringe</a></li><li><a href=\"Bundle-bundlepackageleaflet-en-04c9bd6fb89d38b2d83eced2460c4dc1.html#MedicinalProductDefinition_mpb6ced64d25ea2c8da6c6099386f14db1\">MedicinalProductDefinition: identifier = https://spor.ema.europa.eu/pmswi#EU/1/18/1326/001,https://www.who-umc.org/phpid#0xF79CABF272B6A7EEF104DDDA44E82717; type = Medicinal Product; domain = Human use; status = active; legalStatusOfSupply = Medicinal product subject to medical prescription</a></li><li><a href=\"Bundle-bundlepackageleaflet-en-04c9bd6fb89d38b2d83eced2460c4dc1.html#AdministrableProductDefinition_ap-04c9bd6fb89d38b2d83eced2460c4dc1\">AdministrableProductDefinition: identifier = https://spor.ema.europa.eu/pmswi#xx; status = active; administrableDoseForm = suspension for injection in pre-filled syringe; unitOfPresentation = Syringe</a></li></ul><p><b>role</b>: <span title=\"Codes:{https://spor.ema.europa.eu/rmswi 100000072072}\">active</span></p><blockquote><p><b>substance</b></p><h3>Codes</h3><table class=\"grid\"><tr><td style=\"display: none\">-</td><td><b>Concept</b></td></tr><tr><td style=\"display: none\">*</td><td><span title=\"Codes:{https://gsrs.ncats.nih.gov/ginas/app/beta 9V4SVN4JQV}\">INFLUENZA A VIRUS A/Delaware/55/2019 CVR-45 (H1N1) WHOLE</span></td></tr></table><h3>Strengths</h3><table class=\"grid\"><tr><td style=\"display: none\">-</td><td><b>Presentation[x]</b></td><td><b>Basis</b></td></tr><tr><td style=\"display: none\">*</td><td>15 ug<span style=\"background: LightGoldenRodYellow\"> (Details: UCUM  codeug = 'ug')</span></td><td><span title=\"Codes:{http://terminology.hl7.org/CodeSystem/v3-RoleClass ACTIB}\">active ingredient - basis of strength</span></td></tr></table></blockquote></div>"
      },
      "identifier" : {
        "use" : "official",
        "system" : "https://gsrs.ncats.nih.gov/ginas/app/beta",
        "value" : "9V4SVN4JQV"
      },
      "status" : "active",
      "for" : [{
        "reference" : "ManufacturedItemDefinition/mid-04c9bd6fb89d38b2d83eced2460c4dc1"
      },
      {
        "reference" : "MedicinalProductDefinition/mpb6ced64d25ea2c8da6c6099386f14db1"
      },
      {
        "reference" : "AdministrableProductDefinition/ap-04c9bd6fb89d38b2d83eced2460c4dc1"
      }],
      "role" : {
        "coding" : [{
          "system" : "https://spor.ema.europa.eu/rmswi",
          "code" : "100000072072",
          "display" : "active"
        }]
      },
      "substance" : {
        "code" : {
          "concept" : {
            "coding" : [{
              "system" : "https://gsrs.ncats.nih.gov/ginas/app/beta",
              "code" : "9V4SVN4JQV",
              "display" : "INFLUENZA A VIRUS A/Delaware/55/2019 CVR-45 (H1N1) WHOLE"
            }]
          }
        },
        "strength" : [{
          "presentationQuantity" : {
            "value" : 15,
            "system" : "http://unitsofmeasure.org",
            "code" : "ug"
          },
          "basis" : {
            "coding" : [{
              "system" : "http://terminology.hl7.org/CodeSystem/v3-RoleClass",
              "code" : "ACTIB",
              "display" : "active ingredient - basis of strength"
            }]
          }
        }]
      }
    }
  },
  {
    "fullUrl" : "http://hl7.eu/fhir/ig/gravitate-health/Ingredient/ingredient-for-flucelvax-influenzaavirusadarwin112021h3n2whole",
    "resource" : {
      "resourceType" : "Ingredient",
      "id" : "ingredient-for-flucelvax-influenzaavirusadarwin112021h3n2whole",
      "meta" : {
        "profile" : ["http://hl7.org/fhir/uv/emedicinal-product-info/StructureDefinition/Ingredient-uv-epi"]
      },
      "text" : {
        "status" : "generated",
        "div" : "<div xmlns=\"http://www.w3.org/1999/xhtml\"><a name=\"Ingredient_ingredient-for-flucelvax-influenzaavirusadarwin112021h3n2whole\"> </a><p class=\"res-header-id\"><b>Generated Narrative: Ingredient ingredient-for-flucelvax-influenzaavirusadarwin112021h3n2whole</b></p><a name=\"ingredient-for-flucelvax-influenzaavirusadarwin112021h3n2whole\"> </a><a name=\"hcingredient-for-flucelvax-influenzaavirusadarwin112021h3n2whole\"> </a><div style=\"display: inline-block; background-color: #d9e0e7; padding: 6px; margin: 4px; border: 1px solid #8da1b4; border-radius: 5px; line-height: 60%\"><p style=\"margin-bottom: 0px\"/><p style=\"margin-bottom: 0px\">Profile: <a href=\"https://build.fhir.org/ig/HL7/emedicinal-product-info/StructureDefinition-Ingredient-uv-epi.html\">Ingredient (ePI)</a></p></div><p><b>identifier</b>: <code>https://gsrs.ncats.nih.gov/ginas/app/beta</code>/JS7E5ZZ3AC\u00a0(use:\u00a0official,\u00a0)</p><p><b>status</b>: Active</p><p><b>for</b>: </p><ul><li><a href=\"Bundle-bundlepackageleaflet-en-04c9bd6fb89d38b2d83eced2460c4dc1.html#ManufacturedItemDefinition_mid-04c9bd6fb89d38b2d83eced2460c4dc1\">ManufacturedItemDefinition: identifier = https://spor.ema.europa.eu/pmswi#EU/1/18/1326/001\u00a0(use:\u00a0official,\u00a0); status = active; manufacturedDoseForm = suspension for injection in pre-filled syringe; unitOfPresentation = Syringe</a></li><li><a href=\"Bundle-bundlepackageleaflet-en-04c9bd6fb89d38b2d83eced2460c4dc1.html#MedicinalProductDefinition_mpb6ced64d25ea2c8da6c6099386f14db1\">MedicinalProductDefinition: identifier = https://spor.ema.europa.eu/pmswi#EU/1/18/1326/001,https://www.who-umc.org/phpid#0xF79CABF272B6A7EEF104DDDA44E82717; type = Medicinal Product; domain = Human use; status = active; legalStatusOfSupply = Medicinal product subject to medical prescription</a></li><li><a href=\"Bundle-bundlepackageleaflet-en-04c9bd6fb89d38b2d83eced2460c4dc1.html#AdministrableProductDefinition_ap-04c9bd6fb89d38b2d83eced2460c4dc1\">AdministrableProductDefinition: identifier = https://spor.ema.europa.eu/pmswi#xx; status = active; administrableDoseForm = suspension for injection in pre-filled syringe; unitOfPresentation = Syringe</a></li></ul><p><b>role</b>: <span title=\"Codes:{https://spor.ema.europa.eu/rmswi 100000072082}\">active</span></p><blockquote><p><b>substance</b></p><h3>Codes</h3><table class=\"grid\"><tr><td style=\"display: none\">-</td><td><b>Concept</b></td></tr><tr><td style=\"display: none\">*</td><td><span title=\"Codes:{https://gsrs.ncats.nih.gov/ginas/app/beta JS7E5ZZ3AC}\">INFLUENZA A VIRUS A/Darwin/11/2021 (H3N2) WHOLE</span></td></tr></table><h3>Strengths</h3><table class=\"grid\"><tr><td style=\"display: none\">-</td><td><b>Presentation[x]</b></td><td><b>Basis</b></td></tr><tr><td style=\"display: none\">*</td><td>15 ug<span style=\"background: LightGoldenRodYellow\"> (Details: UCUM  codeug = 'ug')</span></td><td><span title=\"Codes:{http://terminology.hl7.org/CodeSystem/v3-RoleClass ACTIB}\">active ingredient - basis of strength</span></td></tr></table></blockquote></div>"
      },
      "identifier" : {
        "use" : "official",
        "system" : "https://gsrs.ncats.nih.gov/ginas/app/beta",
        "value" : "JS7E5ZZ3AC"
      },
      "status" : "active",
      "for" : [{
        "reference" : "ManufacturedItemDefinition/mid-04c9bd6fb89d38b2d83eced2460c4dc1"
      },
      {
        "reference" : "MedicinalProductDefinition/mpb6ced64d25ea2c8da6c6099386f14db1"
      },
      {
        "reference" : "AdministrableProductDefinition/ap-04c9bd6fb89d38b2d83eced2460c4dc1"
      }],
      "role" : {
        "coding" : [{
          "system" : "https://spor.ema.europa.eu/rmswi",
          "code" : "100000072082",
          "display" : "active"
        }]
      },
      "substance" : {
        "code" : {
          "concept" : {
            "coding" : [{
              "system" : "https://gsrs.ncats.nih.gov/ginas/app/beta",
              "code" : "JS7E5ZZ3AC",
              "display" : "INFLUENZA A VIRUS A/Darwin/11/2021 (H3N2) WHOLE"
            }]
          }
        },
        "strength" : [{
          "presentationQuantity" : {
            "value" : 15,
            "system" : "http://unitsofmeasure.org",
            "code" : "ug"
          },
          "basis" : {
            "coding" : [{
              "system" : "http://terminology.hl7.org/CodeSystem/v3-RoleClass",
              "code" : "ACTIB",
              "display" : "active ingredient - basis of strength"
            }]
          }
        }]
      }
    }
  },
  {
    "fullUrl" : "http://hl7.eu/fhir/ig/gravitate-health/Ingredient/ingredient-for-f4e520e2974f4acb8abe26b607ea5a46",
    "resource" : {
      "resourceType" : "Ingredient",
      "id" : "ingredient-for-f4e520e2974f4acb8abe26b607ea5a46",
      "meta" : {
        "profile" : ["http://hl7.org/fhir/uv/emedicinal-product-info/StructureDefinition/Ingredient-uv-epi"]
      },
      "text" : {
        "status" : "generated",
        "div" : "<div xmlns=\"http://www.w3.org/1999/xhtml\"><a name=\"Ingredient_ingredient-for-f4e520e2974f4acb8abe26b607ea5a46\"> </a><p class=\"res-header-id\"><b>Generated Narrative: Ingredient ingredient-for-f4e520e2974f4acb8abe26b607ea5a46</b></p><a name=\"ingredient-for-f4e520e2974f4acb8abe26b607ea5a46\"> </a><a name=\"hcingredient-for-f4e520e2974f4acb8abe26b607ea5a46\"> </a><div style=\"display: inline-block; background-color: #d9e0e7; padding: 6px; margin: 4px; border: 1px solid #8da1b4; border-radius: 5px; line-height: 60%\"><p style=\"margin-bottom: 0px\"/><p style=\"margin-bottom: 0px\">Profile: <a href=\"https://build.fhir.org/ig/HL7/emedicinal-product-info/StructureDefinition-Ingredient-uv-epi.html\">Ingredient (ePI)</a></p></div><p><b>identifier</b>: <code>https://gsrs.ncats.nih.gov/ginas/app/beta</code>/BFA4LSE5QQ\u00a0(use:\u00a0official,\u00a0)</p><p><b>status</b>: Active</p><p><b>for</b>: </p><ul><li><a href=\"Bundle-bundlepackageleaflet-en-04c9bd6fb89d38b2d83eced2460c4dc1.html#ManufacturedItemDefinition_mid-04c9bd6fb89d38b2d83eced2460c4dc1\">ManufacturedItemDefinition: identifier = https://spor.ema.europa.eu/pmswi#EU/1/18/1326/001\u00a0(use:\u00a0official,\u00a0); status = active; manufacturedDoseForm = suspension for injection in pre-filled syringe; unitOfPresentation = Syringe</a></li><li><a href=\"Bundle-bundlepackageleaflet-en-04c9bd6fb89d38b2d83eced2460c4dc1.html#MedicinalProductDefinition_mpb6ced64d25ea2c8da6c6099386f14db1\">MedicinalProductDefinition: identifier = https://spor.ema.europa.eu/pmswi#EU/1/18/1326/001,https://www.who-umc.org/phpid#0xF79CABF272B6A7EEF104DDDA44E82717; type = Medicinal Product; domain = Human use; status = active; legalStatusOfSupply = Medicinal product subject to medical prescription</a></li><li><a href=\"Bundle-bundlepackageleaflet-en-04c9bd6fb89d38b2d83eced2460c4dc1.html#AdministrableProductDefinition_ap-04c9bd6fb89d38b2d83eced2460c4dc1\">AdministrableProductDefinition: identifier = https://spor.ema.europa.eu/pmswi#xx; status = active; administrableDoseForm = suspension for injection in pre-filled syringe; unitOfPresentation = Syringe</a></li></ul><p><b>role</b>: <span title=\"Codes:{https://spor.ema.europa.eu/rmswi 100000072082}\">active</span></p><blockquote><p><b>substance</b></p><h3>Codes</h3><table class=\"grid\"><tr><td style=\"display: none\">-</td><td><b>Concept</b></td></tr><tr><td style=\"display: none\">*</td><td><span title=\"Codes:{https://gsrs.ncats.nih.gov/ginas/app/beta BFA4LSE5QQ}\">INFLUENZA B VIRUS B/Singapore/WUH4618/2021 WHOLE</span></td></tr></table><h3>Strengths</h3><table class=\"grid\"><tr><td style=\"display: none\">-</td><td><b>Presentation[x]</b></td><td><b>Basis</b></td></tr><tr><td style=\"display: none\">*</td><td>15 ug<span style=\"background: LightGoldenRodYellow\"> (Details: UCUM  codeug = 'ug')</span></td><td><span title=\"Codes:{http://terminology.hl7.org/CodeSystem/v3-RoleClass ACTIB}\">active ingredient - basis of strength</span></td></tr></table></blockquote></div>"
      },
      "identifier" : {
        "use" : "official",
        "system" : "https://gsrs.ncats.nih.gov/ginas/app/beta",
        "value" : "BFA4LSE5QQ"
      },
      "status" : "active",
      "for" : [{
        "reference" : "ManufacturedItemDefinition/mid-04c9bd6fb89d38b2d83eced2460c4dc1"
      },
      {
        "reference" : "MedicinalProductDefinition/mpb6ced64d25ea2c8da6c6099386f14db1"
      },
      {
        "reference" : "AdministrableProductDefinition/ap-04c9bd6fb89d38b2d83eced2460c4dc1"
      }],
      "role" : {
        "coding" : [{
          "system" : "https://spor.ema.europa.eu/rmswi",
          "code" : "100000072082",
          "display" : "active"
        }]
      },
      "substance" : {
        "code" : {
          "concept" : {
            "coding" : [{
              "system" : "https://gsrs.ncats.nih.gov/ginas/app/beta",
              "code" : "BFA4LSE5QQ",
              "display" : "INFLUENZA B VIRUS B/Singapore/WUH4618/2021 WHOLE"
            }]
          }
        },
        "strength" : [{
          "presentationQuantity" : {
            "value" : 15,
            "system" : "http://unitsofmeasure.org",
            "code" : "ug"
          },
          "basis" : {
            "coding" : [{
              "system" : "http://terminology.hl7.org/CodeSystem/v3-RoleClass",
              "code" : "ACTIB",
              "display" : "active ingredient - basis of strength"
            }]
          }
        }]
      }
    }
  },
  {
    "fullUrl" : "http://hl7.eu/fhir/ig/gravitate-health/Ingredient/ingredient-for-2c0c197a41a706fb2549601e635da1f3",
    "resource" : {
      "resourceType" : "Ingredient",
      "id" : "ingredient-for-2c0c197a41a706fb2549601e635da1f3",
      "meta" : {
        "profile" : ["http://hl7.org/fhir/uv/emedicinal-product-info/StructureDefinition/Ingredient-uv-epi"]
      },
      "text" : {
        "status" : "generated",
        "div" : "<div xmlns=\"http://www.w3.org/1999/xhtml\"><a name=\"Ingredient_ingredient-for-2c0c197a41a706fb2549601e635da1f3\"> </a><p class=\"res-header-id\"><b>Generated Narrative: Ingredient ingredient-for-2c0c197a41a706fb2549601e635da1f3</b></p><a name=\"ingredient-for-2c0c197a41a706fb2549601e635da1f3\"> </a><a name=\"hcingredient-for-2c0c197a41a706fb2549601e635da1f3\"> </a><div style=\"display: inline-block; background-color: #d9e0e7; padding: 6px; margin: 4px; border: 1px solid #8da1b4; border-radius: 5px; line-height: 60%\"><p style=\"margin-bottom: 0px\"/><p style=\"margin-bottom: 0px\">Profile: <a href=\"https://build.fhir.org/ig/HL7/emedicinal-product-info/StructureDefinition-Ingredient-uv-epi.html\">Ingredient (ePI)</a></p></div><p><b>identifier</b>: <code>https://gsrs.ncats.nih.gov/ginas/app/beta</code>/B3EV5T8SUF\u00a0(use:\u00a0official,\u00a0)</p><p><b>status</b>: Active</p><p><b>for</b>: </p><ul><li><a href=\"Bundle-bundlepackageleaflet-en-04c9bd6fb89d38b2d83eced2460c4dc1.html#ManufacturedItemDefinition_mid-04c9bd6fb89d38b2d83eced2460c4dc1\">ManufacturedItemDefinition: identifier = https://spor.ema.europa.eu/pmswi#EU/1/18/1326/001\u00a0(use:\u00a0official,\u00a0); status = active; manufacturedDoseForm = suspension for injection in pre-filled syringe; unitOfPresentation = Syringe</a></li><li><a href=\"Bundle-bundlepackageleaflet-en-04c9bd6fb89d38b2d83eced2460c4dc1.html#MedicinalProductDefinition_mpb6ced64d25ea2c8da6c6099386f14db1\">MedicinalProductDefinition: identifier = https://spor.ema.europa.eu/pmswi#EU/1/18/1326/001,https://www.who-umc.org/phpid#0xF79CABF272B6A7EEF104DDDA44E82717; type = Medicinal Product; domain = Human use; status = active; legalStatusOfSupply = Medicinal product subject to medical prescription</a></li><li><a href=\"Bundle-bundlepackageleaflet-en-04c9bd6fb89d38b2d83eced2460c4dc1.html#AdministrableProductDefinition_ap-04c9bd6fb89d38b2d83eced2460c4dc1\">AdministrableProductDefinition: identifier = https://spor.ema.europa.eu/pmswi#xx; status = active; administrableDoseForm = suspension for injection in pre-filled syringe; unitOfPresentation = Syringe</a></li></ul><p><b>role</b>: <span title=\"Codes:{https://spor.ema.europa.eu/rmswi 100000072082}\">active</span></p><blockquote><p><b>substance</b></p><h3>Codes</h3><table class=\"grid\"><tr><td style=\"display: none\">-</td><td><b>Concept</b></td></tr><tr><td style=\"display: none\">*</td><td><span title=\"Codes:{https://gsrs.ncats.nih.gov/ginas/app/beta B3EV5T8SUF}\">INFLUENZA B VIRUS B/SINGAPORE/INFTT-16-0610/2016 WHOLE</span></td></tr></table><h3>Strengths</h3><table class=\"grid\"><tr><td style=\"display: none\">-</td><td><b>Presentation[x]</b></td><td><b>Basis</b></td></tr><tr><td style=\"display: none\">*</td><td>15 ug<span style=\"background: LightGoldenRodYellow\"> (Details: UCUM  codeug = 'ug')</span></td><td><span title=\"Codes:{http://terminology.hl7.org/CodeSystem/v3-RoleClass ACTIB}\">active ingredient - basis of strength</span></td></tr></table></blockquote></div>"
      },
      "identifier" : {
        "use" : "official",
        "system" : "https://gsrs.ncats.nih.gov/ginas/app/beta",
        "value" : "B3EV5T8SUF"
      },
      "status" : "active",
      "for" : [{
        "reference" : "ManufacturedItemDefinition/mid-04c9bd6fb89d38b2d83eced2460c4dc1"
      },
      {
        "reference" : "MedicinalProductDefinition/mpb6ced64d25ea2c8da6c6099386f14db1"
      },
      {
        "reference" : "AdministrableProductDefinition/ap-04c9bd6fb89d38b2d83eced2460c4dc1"
      }],
      "role" : {
        "coding" : [{
          "system" : "https://spor.ema.europa.eu/rmswi",
          "code" : "100000072082",
          "display" : "active"
        }]
      },
      "substance" : {
        "code" : {
          "concept" : {
            "coding" : [{
              "system" : "https://gsrs.ncats.nih.gov/ginas/app/beta",
              "code" : "B3EV5T8SUF",
              "display" : "INFLUENZA B VIRUS B/SINGAPORE/INFTT-16-0610/2016 WHOLE"
            }]
          }
        },
        "strength" : [{
          "presentationQuantity" : {
            "value" : 15,
            "system" : "http://unitsofmeasure.org",
            "code" : "ug"
          },
          "basis" : {
            "coding" : [{
              "system" : "http://terminology.hl7.org/CodeSystem/v3-RoleClass",
              "code" : "ACTIB",
              "display" : "active ingredient - basis of strength"
            }]
          }
        }]
      }
    }
  },
  {
    "fullUrl" : "http://hl7.eu/fhir/ig/gravitate-health/Ingredient/ingredient-for-flucelvax-sodiumchloride",
    "resource" : {
      "resourceType" : "Ingredient",
      "id" : "ingredient-for-flucelvax-sodiumchloride",
      "meta" : {
        "profile" : ["http://hl7.org/fhir/uv/emedicinal-product-info/StructureDefinition/Ingredient-uv-epi"]
      },
      "text" : {
        "status" : "generated",
        "div" : "<div xmlns=\"http://www.w3.org/1999/xhtml\"><a name=\"Ingredient_ingredient-for-flucelvax-sodiumchloride\"> </a><p class=\"res-header-id\"><b>Generated Narrative: Ingredient ingredient-for-flucelvax-sodiumchloride</b></p><a name=\"ingredient-for-flucelvax-sodiumchloride\"> </a><a name=\"hcingredient-for-flucelvax-sodiumchloride\"> </a><div style=\"display: inline-block; background-color: #d9e0e7; padding: 6px; margin: 4px; border: 1px solid #8da1b4; border-radius: 5px; line-height: 60%\"><p style=\"margin-bottom: 0px\"/><p style=\"margin-bottom: 0px\">Profile: <a href=\"https://build.fhir.org/ig/HL7/emedicinal-product-info/StructureDefinition-Ingredient-uv-epi.html\">Ingredient (ePI)</a></p></div><p><b>identifier</b>: <code>https://gsrs.ncats.nih.gov/ginas/app/beta</code>/451W47IQ8X\u00a0(use:\u00a0official,\u00a0)</p><p><b>status</b>: Active</p><p><b>for</b>: </p><ul><li><a href=\"Bundle-bundlepackageleaflet-en-04c9bd6fb89d38b2d83eced2460c4dc1.html#ManufacturedItemDefinition_mid-04c9bd6fb89d38b2d83eced2460c4dc1\">ManufacturedItemDefinition: identifier = https://spor.ema.europa.eu/pmswi#EU/1/18/1326/001\u00a0(use:\u00a0official,\u00a0); status = active; manufacturedDoseForm = suspension for injection in pre-filled syringe; unitOfPresentation = Syringe</a></li><li><a href=\"Bundle-bundlepackageleaflet-en-04c9bd6fb89d38b2d83eced2460c4dc1.html#MedicinalProductDefinition_mpb6ced64d25ea2c8da6c6099386f14db1\">MedicinalProductDefinition: identifier = https://spor.ema.europa.eu/pmswi#EU/1/18/1326/001,https://www.who-umc.org/phpid#0xF79CABF272B6A7EEF104DDDA44E82717; type = Medicinal Product; domain = Human use; status = active; legalStatusOfSupply = Medicinal product subject to medical prescription</a></li><li><a href=\"Bundle-bundlepackageleaflet-en-04c9bd6fb89d38b2d83eced2460c4dc1.html#AdministrableProductDefinition_ap-04c9bd6fb89d38b2d83eced2460c4dc1\">AdministrableProductDefinition: identifier = https://spor.ema.europa.eu/pmswi#xx; status = active; administrableDoseForm = suspension for injection in pre-filled syringe; unitOfPresentation = Syringe</a></li></ul><p><b>role</b>: <span title=\"Codes:{https://spor.ema.europa.eu/rmswi 100000072082}\">Excipient</span></p><blockquote><p><b>substance</b></p><h3>Codes</h3><table class=\"grid\"><tr><td style=\"display: none\">-</td><td><b>Concept</b></td></tr><tr><td style=\"display: none\">*</td><td><span title=\"Codes:{https://gsrs.ncats.nih.gov/ginas/app/beta 451W47IQ8X}\">Sodium chloride</span></td></tr></table></blockquote></div>"
      },
      "identifier" : {
        "use" : "official",
        "system" : "https://gsrs.ncats.nih.gov/ginas/app/beta",
        "value" : "451W47IQ8X"
      },
      "status" : "active",
      "for" : [{
        "reference" : "ManufacturedItemDefinition/mid-04c9bd6fb89d38b2d83eced2460c4dc1"
      },
      {
        "reference" : "MedicinalProductDefinition/mpb6ced64d25ea2c8da6c6099386f14db1"
      },
      {
        "reference" : "AdministrableProductDefinition/ap-04c9bd6fb89d38b2d83eced2460c4dc1"
      }],
      "role" : {
        "coding" : [{
          "system" : "https://spor.ema.europa.eu/rmswi",
          "code" : "100000072082",
          "display" : "Excipient"
        }]
      },
      "substance" : {
        "code" : {
          "concept" : {
            "coding" : [{
              "system" : "https://gsrs.ncats.nih.gov/ginas/app/beta",
              "code" : "451W47IQ8X",
              "display" : "Sodium chloride"
            }]
          }
        }
      }
    }
  },
  {
    "fullUrl" : "http://hl7.eu/fhir/ig/gravitate-health/Ingredient/ingredient-for-flucelvax-potassiumchloride",
    "resource" : {
      "resourceType" : "Ingredient",
      "id" : "ingredient-for-flucelvax-potassiumchloride",
      "meta" : {
        "profile" : ["http://hl7.org/fhir/uv/emedicinal-product-info/StructureDefinition/Ingredient-uv-epi"]
      },
      "text" : {
        "status" : "generated",
        "div" : "<div xmlns=\"http://www.w3.org/1999/xhtml\"><a name=\"Ingredient_ingredient-for-flucelvax-potassiumchloride\"> </a><p class=\"res-header-id\"><b>Generated Narrative: Ingredient ingredient-for-flucelvax-potassiumchloride</b></p><a name=\"ingredient-for-flucelvax-potassiumchloride\"> </a><a name=\"hcingredient-for-flucelvax-potassiumchloride\"> </a><div style=\"display: inline-block; background-color: #d9e0e7; padding: 6px; margin: 4px; border: 1px solid #8da1b4; border-radius: 5px; line-height: 60%\"><p style=\"margin-bottom: 0px\"/><p style=\"margin-bottom: 0px\">Profile: <a href=\"https://build.fhir.org/ig/HL7/emedicinal-product-info/StructureDefinition-Ingredient-uv-epi.html\">Ingredient (ePI)</a></p></div><p><b>identifier</b>: <code>https://gsrs.ncats.nih.gov/ginas/app/beta</code>/660YQ98I10\u00a0(use:\u00a0official,\u00a0)</p><p><b>status</b>: Active</p><p><b>for</b>: </p><ul><li><a href=\"Bundle-bundlepackageleaflet-en-04c9bd6fb89d38b2d83eced2460c4dc1.html#ManufacturedItemDefinition_mid-04c9bd6fb89d38b2d83eced2460c4dc1\">ManufacturedItemDefinition: identifier = https://spor.ema.europa.eu/pmswi#EU/1/18/1326/001\u00a0(use:\u00a0official,\u00a0); status = active; manufacturedDoseForm = suspension for injection in pre-filled syringe; unitOfPresentation = Syringe</a></li><li><a href=\"Bundle-bundlepackageleaflet-en-04c9bd6fb89d38b2d83eced2460c4dc1.html#MedicinalProductDefinition_mpb6ced64d25ea2c8da6c6099386f14db1\">MedicinalProductDefinition: identifier = https://spor.ema.europa.eu/pmswi#EU/1/18/1326/001,https://www.who-umc.org/phpid#0xF79CABF272B6A7EEF104DDDA44E82717; type = Medicinal Product; domain = Human use; status = active; legalStatusOfSupply = Medicinal product subject to medical prescription</a></li><li><a href=\"Bundle-bundlepackageleaflet-en-04c9bd6fb89d38b2d83eced2460c4dc1.html#AdministrableProductDefinition_ap-04c9bd6fb89d38b2d83eced2460c4dc1\">AdministrableProductDefinition: identifier = https://spor.ema.europa.eu/pmswi#xx; status = active; administrableDoseForm = suspension for injection in pre-filled syringe; unitOfPresentation = Syringe</a></li></ul><p><b>role</b>: <span title=\"Codes:{https://spor.ema.europa.eu/rmswi 100000072082}\">Excipient</span></p><blockquote><p><b>substance</b></p><h3>Codes</h3><table class=\"grid\"><tr><td style=\"display: none\">-</td><td><b>Concept</b></td></tr><tr><td style=\"display: none\">*</td><td><span title=\"Codes:{https://gsrs.ncats.nih.gov/ginas/app/beta 660YQ98I10}\">Potassium chloride</span></td></tr></table></blockquote></div>"
      },
      "identifier" : {
        "use" : "official",
        "system" : "https://gsrs.ncats.nih.gov/ginas/app/beta",
        "value" : "660YQ98I10"
      },
      "status" : "active",
      "for" : [{
        "reference" : "ManufacturedItemDefinition/mid-04c9bd6fb89d38b2d83eced2460c4dc1"
      },
      {
        "reference" : "MedicinalProductDefinition/mpb6ced64d25ea2c8da6c6099386f14db1"
      },
      {
        "reference" : "AdministrableProductDefinition/ap-04c9bd6fb89d38b2d83eced2460c4dc1"
      }],
      "role" : {
        "coding" : [{
          "system" : "https://spor.ema.europa.eu/rmswi",
          "code" : "100000072082",
          "display" : "Excipient"
        }]
      },
      "substance" : {
        "code" : {
          "concept" : {
            "coding" : [{
              "system" : "https://gsrs.ncats.nih.gov/ginas/app/beta",
              "code" : "660YQ98I10",
              "display" : "Potassium chloride"
            }]
          }
        }
      }
    }
  },
  {
    "fullUrl" : "http://hl7.eu/fhir/ig/gravitate-health/Ingredient/ingredient-for-flucelvax-magnesiumchloride",
    "resource" : {
      "resourceType" : "Ingredient",
      "id" : "ingredient-for-flucelvax-magnesiumchloride",
      "meta" : {
        "profile" : ["http://hl7.org/fhir/uv/emedicinal-product-info/StructureDefinition/Ingredient-uv-epi"]
      },
      "text" : {
        "status" : "generated",
        "div" : "<div xmlns=\"http://www.w3.org/1999/xhtml\"><a name=\"Ingredient_ingredient-for-flucelvax-magnesiumchloride\"> </a><p class=\"res-header-id\"><b>Generated Narrative: Ingredient ingredient-for-flucelvax-magnesiumchloride</b></p><a name=\"ingredient-for-flucelvax-magnesiumchloride\"> </a><a name=\"hcingredient-for-flucelvax-magnesiumchloride\"> </a><div style=\"display: inline-block; background-color: #d9e0e7; padding: 6px; margin: 4px; border: 1px solid #8da1b4; border-radius: 5px; line-height: 60%\"><p style=\"margin-bottom: 0px\"/><p style=\"margin-bottom: 0px\">Profile: <a href=\"https://build.fhir.org/ig/HL7/emedicinal-product-info/StructureDefinition-Ingredient-uv-epi.html\">Ingredient (ePI)</a></p></div><p><b>identifier</b>: <code>https://gsrs.ncats.nih.gov/ginas/app/beta</code>/02F3473H9O\u00a0(use:\u00a0official,\u00a0)</p><p><b>status</b>: Active</p><p><b>for</b>: </p><ul><li><a href=\"Bundle-bundlepackageleaflet-en-04c9bd6fb89d38b2d83eced2460c4dc1.html#ManufacturedItemDefinition_mid-04c9bd6fb89d38b2d83eced2460c4dc1\">ManufacturedItemDefinition: identifier = https://spor.ema.europa.eu/pmswi#EU/1/18/1326/001\u00a0(use:\u00a0official,\u00a0); status = active; manufacturedDoseForm = suspension for injection in pre-filled syringe; unitOfPresentation = Syringe</a></li><li><a href=\"Bundle-bundlepackageleaflet-en-04c9bd6fb89d38b2d83eced2460c4dc1.html#MedicinalProductDefinition_mpb6ced64d25ea2c8da6c6099386f14db1\">MedicinalProductDefinition: identifier = https://spor.ema.europa.eu/pmswi#EU/1/18/1326/001,https://www.who-umc.org/phpid#0xF79CABF272B6A7EEF104DDDA44E82717; type = Medicinal Product; domain = Human use; status = active; legalStatusOfSupply = Medicinal product subject to medical prescription</a></li><li><a href=\"Bundle-bundlepackageleaflet-en-04c9bd6fb89d38b2d83eced2460c4dc1.html#AdministrableProductDefinition_ap-04c9bd6fb89d38b2d83eced2460c4dc1\">AdministrableProductDefinition: identifier = https://spor.ema.europa.eu/pmswi#xx; status = active; administrableDoseForm = suspension for injection in pre-filled syringe; unitOfPresentation = Syringe</a></li></ul><p><b>role</b>: <span title=\"Codes:{https://spor.ema.europa.eu/rmswi 100000072082}\">Excipient</span></p><blockquote><p><b>substance</b></p><h3>Codes</h3><table class=\"grid\"><tr><td style=\"display: none\">-</td><td><b>Concept</b></td></tr><tr><td style=\"display: none\">*</td><td><span title=\"Codes:{https://gsrs.ncats.nih.gov/ginas/app/beta 02F3473H9O}\">MAGNESIUM CHLORIDE</span></td></tr></table></blockquote></div>"
      },
      "identifier" : {
        "use" : "official",
        "system" : "https://gsrs.ncats.nih.gov/ginas/app/beta",
        "value" : "02F3473H9O"
      },
      "status" : "active",
      "for" : [{
        "reference" : "ManufacturedItemDefinition/mid-04c9bd6fb89d38b2d83eced2460c4dc1"
      },
      {
        "reference" : "MedicinalProductDefinition/mpb6ced64d25ea2c8da6c6099386f14db1"
      },
      {
        "reference" : "AdministrableProductDefinition/ap-04c9bd6fb89d38b2d83eced2460c4dc1"
      }],
      "role" : {
        "coding" : [{
          "system" : "https://spor.ema.europa.eu/rmswi",
          "code" : "100000072082",
          "display" : "Excipient"
        }]
      },
      "substance" : {
        "code" : {
          "concept" : {
            "coding" : [{
              "system" : "https://gsrs.ncats.nih.gov/ginas/app/beta",
              "code" : "02F3473H9O",
              "display" : "MAGNESIUM CHLORIDE"
            }]
          }
        }
      }
    }
  },
  {
    "fullUrl" : "http://hl7.eu/fhir/ig/gravitate-health/Ingredient/ingredient-for-flucelvax-sodiumphosphatedibasicdihydrate",
    "resource" : {
      "resourceType" : "Ingredient",
      "id" : "ingredient-for-flucelvax-sodiumphosphatedibasicdihydrate",
      "meta" : {
        "profile" : ["http://hl7.org/fhir/uv/emedicinal-product-info/StructureDefinition/Ingredient-uv-epi"]
      },
      "text" : {
        "status" : "generated",
        "div" : "<div xmlns=\"http://www.w3.org/1999/xhtml\"><a name=\"Ingredient_ingredient-for-flucelvax-sodiumphosphatedibasicdihydrate\"> </a><p class=\"res-header-id\"><b>Generated Narrative: Ingredient ingredient-for-flucelvax-sodiumphosphatedibasicdihydrate</b></p><a name=\"ingredient-for-flucelvax-sodiumphosphatedibasicdihydrate\"> </a><a name=\"hcingredient-for-flucelvax-sodiumphosphatedibasicdihydrate\"> </a><div style=\"display: inline-block; background-color: #d9e0e7; padding: 6px; margin: 4px; border: 1px solid #8da1b4; border-radius: 5px; line-height: 60%\"><p style=\"margin-bottom: 0px\"/><p style=\"margin-bottom: 0px\">Profile: <a href=\"https://build.fhir.org/ig/HL7/emedicinal-product-info/StructureDefinition-Ingredient-uv-epi.html\">Ingredient (ePI)</a></p></div><p><b>identifier</b>: <code>https://gsrs.ncats.nih.gov/ginas/app/beta</code>/94255I6E2T\u00a0(use:\u00a0official,\u00a0)</p><p><b>status</b>: Active</p><p><b>for</b>: </p><ul><li><a href=\"Bundle-bundlepackageleaflet-en-04c9bd6fb89d38b2d83eced2460c4dc1.html#ManufacturedItemDefinition_mid-04c9bd6fb89d38b2d83eced2460c4dc1\">ManufacturedItemDefinition: identifier = https://spor.ema.europa.eu/pmswi#EU/1/18/1326/001\u00a0(use:\u00a0official,\u00a0); status = active; manufacturedDoseForm = suspension for injection in pre-filled syringe; unitOfPresentation = Syringe</a></li><li><a href=\"Bundle-bundlepackageleaflet-en-04c9bd6fb89d38b2d83eced2460c4dc1.html#MedicinalProductDefinition_mpb6ced64d25ea2c8da6c6099386f14db1\">MedicinalProductDefinition: identifier = https://spor.ema.europa.eu/pmswi#EU/1/18/1326/001,https://www.who-umc.org/phpid#0xF79CABF272B6A7EEF104DDDA44E82717; type = Medicinal Product; domain = Human use; status = active; legalStatusOfSupply = Medicinal product subject to medical prescription</a></li><li><a href=\"Bundle-bundlepackageleaflet-en-04c9bd6fb89d38b2d83eced2460c4dc1.html#AdministrableProductDefinition_ap-04c9bd6fb89d38b2d83eced2460c4dc1\">AdministrableProductDefinition: identifier = https://spor.ema.europa.eu/pmswi#xx; status = active; administrableDoseForm = suspension for injection in pre-filled syringe; unitOfPresentation = Syringe</a></li></ul><p><b>role</b>: <span title=\"Codes:{https://spor.ema.europa.eu/rmswi 100000072082}\">Excipient</span></p><blockquote><p><b>substance</b></p><h3>Codes</h3><table class=\"grid\"><tr><td style=\"display: none\">-</td><td><b>Concept</b></td></tr><tr><td style=\"display: none\">*</td><td><span title=\"Codes:{https://gsrs.ncats.nih.gov/ginas/app/beta 94255I6E2T}\">SODIUM PHOSPHATE, DIBASIC, DIHYDRATE</span></td></tr></table></blockquote></div>"
      },
      "identifier" : {
        "use" : "official",
        "system" : "https://gsrs.ncats.nih.gov/ginas/app/beta",
        "value" : "94255I6E2T"
      },
      "status" : "active",
      "for" : [{
        "reference" : "ManufacturedItemDefinition/mid-04c9bd6fb89d38b2d83eced2460c4dc1"
      },
      {
        "reference" : "MedicinalProductDefinition/mpb6ced64d25ea2c8da6c6099386f14db1"
      },
      {
        "reference" : "AdministrableProductDefinition/ap-04c9bd6fb89d38b2d83eced2460c4dc1"
      }],
      "role" : {
        "coding" : [{
          "system" : "https://spor.ema.europa.eu/rmswi",
          "code" : "100000072082",
          "display" : "Excipient"
        }]
      },
      "substance" : {
        "code" : {
          "concept" : {
            "coding" : [{
              "system" : "https://gsrs.ncats.nih.gov/ginas/app/beta",
              "code" : "94255I6E2T",
              "display" : "SODIUM PHOSPHATE, DIBASIC, DIHYDRATE"
            }]
          }
        }
      }
    }
  },
  {
    "fullUrl" : "http://hl7.eu/fhir/ig/gravitate-health/Ingredient/ingredient-for-flucelvax-potassiumdihydrogenphosphate",
    "resource" : {
      "resourceType" : "Ingredient",
      "id" : "ingredient-for-flucelvax-potassiumdihydrogenphosphate",
      "meta" : {
        "profile" : ["http://hl7.org/fhir/uv/emedicinal-product-info/StructureDefinition/Ingredient-uv-epi"]
      },
      "text" : {
        "status" : "generated",
        "div" : "<div xmlns=\"http://www.w3.org/1999/xhtml\"><a name=\"Ingredient_ingredient-for-flucelvax-potassiumdihydrogenphosphate\"> </a><p class=\"res-header-id\"><b>Generated Narrative: Ingredient ingredient-for-flucelvax-potassiumdihydrogenphosphate</b></p><a name=\"ingredient-for-flucelvax-potassiumdihydrogenphosphate\"> </a><a name=\"hcingredient-for-flucelvax-potassiumdihydrogenphosphate\"> </a><div style=\"display: inline-block; background-color: #d9e0e7; padding: 6px; margin: 4px; border: 1px solid #8da1b4; border-radius: 5px; line-height: 60%\"><p style=\"margin-bottom: 0px\"/><p style=\"margin-bottom: 0px\">Profile: <a href=\"https://build.fhir.org/ig/HL7/emedicinal-product-info/StructureDefinition-Ingredient-uv-epi.html\">Ingredient (ePI)</a></p></div><p><b>identifier</b>: <code>https://gsrs.ncats.nih.gov/ginas/app/beta</code>/4J9FJ0HL51\u00a0(use:\u00a0official,\u00a0)</p><p><b>status</b>: Active</p><p><b>for</b>: </p><ul><li><a href=\"Bundle-bundlepackageleaflet-en-04c9bd6fb89d38b2d83eced2460c4dc1.html#ManufacturedItemDefinition_mid-04c9bd6fb89d38b2d83eced2460c4dc1\">ManufacturedItemDefinition: identifier = https://spor.ema.europa.eu/pmswi#EU/1/18/1326/001\u00a0(use:\u00a0official,\u00a0); status = active; manufacturedDoseForm = suspension for injection in pre-filled syringe; unitOfPresentation = Syringe</a></li><li><a href=\"Bundle-bundlepackageleaflet-en-04c9bd6fb89d38b2d83eced2460c4dc1.html#MedicinalProductDefinition_mpb6ced64d25ea2c8da6c6099386f14db1\">MedicinalProductDefinition: identifier = https://spor.ema.europa.eu/pmswi#EU/1/18/1326/001,https://www.who-umc.org/phpid#0xF79CABF272B6A7EEF104DDDA44E82717; type = Medicinal Product; domain = Human use; status = active; legalStatusOfSupply = Medicinal product subject to medical prescription</a></li><li><a href=\"Bundle-bundlepackageleaflet-en-04c9bd6fb89d38b2d83eced2460c4dc1.html#AdministrableProductDefinition_ap-04c9bd6fb89d38b2d83eced2460c4dc1\">AdministrableProductDefinition: identifier = https://spor.ema.europa.eu/pmswi#xx; status = active; administrableDoseForm = suspension for injection in pre-filled syringe; unitOfPresentation = Syringe</a></li></ul><p><b>role</b>: <span title=\"Codes:{https://spor.ema.europa.eu/rmswi 100000072082}\">Excipient</span></p><blockquote><p><b>substance</b></p><h3>Codes</h3><table class=\"grid\"><tr><td style=\"display: none\">-</td><td><b>Concept</b></td></tr><tr><td style=\"display: none\">*</td><td><span title=\"Codes:{https://gsrs.ncats.nih.gov/ginas/app/beta 4J9FJ0HL51}\">Potassium dihydrogen phosphate</span></td></tr></table></blockquote></div>"
      },
      "identifier" : {
        "use" : "official",
        "system" : "https://gsrs.ncats.nih.gov/ginas/app/beta",
        "value" : "4J9FJ0HL51"
      },
      "status" : "active",
      "for" : [{
        "reference" : "ManufacturedItemDefinition/mid-04c9bd6fb89d38b2d83eced2460c4dc1"
      },
      {
        "reference" : "MedicinalProductDefinition/mpb6ced64d25ea2c8da6c6099386f14db1"
      },
      {
        "reference" : "AdministrableProductDefinition/ap-04c9bd6fb89d38b2d83eced2460c4dc1"
      }],
      "role" : {
        "coding" : [{
          "system" : "https://spor.ema.europa.eu/rmswi",
          "code" : "100000072082",
          "display" : "Excipient"
        }]
      },
      "substance" : {
        "code" : {
          "concept" : {
            "coding" : [{
              "system" : "https://gsrs.ncats.nih.gov/ginas/app/beta",
              "code" : "4J9FJ0HL51",
              "display" : "Potassium dihydrogen phosphate"
            }]
          }
        }
      }
    }
  },
  {
    "fullUrl" : "http://hl7.eu/fhir/ig/gravitate-health/Ingredient/ingredient-for-flucelvax-waterforinjections",
    "resource" : {
      "resourceType" : "Ingredient",
      "id" : "ingredient-for-flucelvax-waterforinjections",
      "meta" : {
        "profile" : ["http://hl7.org/fhir/uv/emedicinal-product-info/StructureDefinition/Ingredient-uv-epi"]
      },
      "text" : {
        "status" : "generated",
        "div" : "<div xmlns=\"http://www.w3.org/1999/xhtml\"><a name=\"Ingredient_ingredient-for-flucelvax-waterforinjections\"> </a><p class=\"res-header-id\"><b>Generated Narrative: Ingredient ingredient-for-flucelvax-waterforinjections</b></p><a name=\"ingredient-for-flucelvax-waterforinjections\"> </a><a name=\"hcingredient-for-flucelvax-waterforinjections\"> </a><div style=\"display: inline-block; background-color: #d9e0e7; padding: 6px; margin: 4px; border: 1px solid #8da1b4; border-radius: 5px; line-height: 60%\"><p style=\"margin-bottom: 0px\"/><p style=\"margin-bottom: 0px\">Profile: <a href=\"https://build.fhir.org/ig/HL7/emedicinal-product-info/StructureDefinition-Ingredient-uv-epi.html\">Ingredient (ePI)</a></p></div><p><b>identifier</b>: <code>https://gsrs.ncats.nih.gov/ginas/app/beta</code>/059QF0KO0R\u00a0(use:\u00a0official,\u00a0)</p><p><b>status</b>: Active</p><p><b>for</b>: </p><ul><li><a href=\"Bundle-bundlepackageleaflet-en-04c9bd6fb89d38b2d83eced2460c4dc1.html#ManufacturedItemDefinition_mid-04c9bd6fb89d38b2d83eced2460c4dc1\">ManufacturedItemDefinition: identifier = https://spor.ema.europa.eu/pmswi#EU/1/18/1326/001\u00a0(use:\u00a0official,\u00a0); status = active; manufacturedDoseForm = suspension for injection in pre-filled syringe; unitOfPresentation = Syringe</a></li><li><a href=\"Bundle-bundlepackageleaflet-en-04c9bd6fb89d38b2d83eced2460c4dc1.html#MedicinalProductDefinition_mpb6ced64d25ea2c8da6c6099386f14db1\">MedicinalProductDefinition: identifier = https://spor.ema.europa.eu/pmswi#EU/1/18/1326/001,https://www.who-umc.org/phpid#0xF79CABF272B6A7EEF104DDDA44E82717; type = Medicinal Product; domain = Human use; status = active; legalStatusOfSupply = Medicinal product subject to medical prescription</a></li><li><a href=\"Bundle-bundlepackageleaflet-en-04c9bd6fb89d38b2d83eced2460c4dc1.html#AdministrableProductDefinition_ap-04c9bd6fb89d38b2d83eced2460c4dc1\">AdministrableProductDefinition: identifier = https://spor.ema.europa.eu/pmswi#xx; status = active; administrableDoseForm = suspension for injection in pre-filled syringe; unitOfPresentation = Syringe</a></li></ul><p><b>role</b>: <span title=\"Codes:{https://spor.ema.europa.eu/rmswi 100000072082}\">Excipient</span></p><blockquote><p><b>substance</b></p><h3>Codes</h3><table class=\"grid\"><tr><td style=\"display: none\">-</td><td><b>Concept</b></td></tr><tr><td style=\"display: none\">*</td><td><span title=\"Codes:{https://gsrs.ncats.nih.gov/ginas/app/beta 059QF0KO0R}\">Water for injections</span></td></tr></table></blockquote></div>"
      },
      "identifier" : {
        "use" : "official",
        "system" : "https://gsrs.ncats.nih.gov/ginas/app/beta",
        "value" : "059QF0KO0R"
      },
      "status" : "active",
      "for" : [{
        "reference" : "ManufacturedItemDefinition/mid-04c9bd6fb89d38b2d83eced2460c4dc1"
      },
      {
        "reference" : "MedicinalProductDefinition/mpb6ced64d25ea2c8da6c6099386f14db1"
      },
      {
        "reference" : "AdministrableProductDefinition/ap-04c9bd6fb89d38b2d83eced2460c4dc1"
      }],
      "role" : {
        "coding" : [{
          "system" : "https://spor.ema.europa.eu/rmswi",
          "code" : "100000072082",
          "display" : "Excipient"
        }]
      },
      "substance" : {
        "code" : {
          "concept" : {
            "coding" : [{
              "system" : "https://gsrs.ncats.nih.gov/ginas/app/beta",
              "code" : "059QF0KO0R",
              "display" : "Water for injections"
            }]
          }
        }
      }
    }
  },
  {
    "fullUrl" : "http://hl7.eu/fhir/ig/gravitate-health/SubstanceDefinition/substance-influenzaavirusadelaware552019cvr45h1n1whole",
    "resource" : {
      "resourceType" : "SubstanceDefinition",
      "id" : "substance-influenzaavirusadelaware552019cvr45h1n1whole",
      "meta" : {
        "profile" : ["http://hl7.org/fhir/uv/emedicinal-product-info/StructureDefinition/SubstanceDefinition-uv-epi"]
      },
      "text" : {
        "status" : "generated",
        "div" : "<div xmlns=\"http://www.w3.org/1999/xhtml\"><a name=\"SubstanceDefinition_substance-influenzaavirusadelaware552019cvr45h1n1whole\"> </a><p class=\"res-header-id\"><b>Generated Narrative: SubstanceDefinition substance-influenzaavirusadelaware552019cvr45h1n1whole</b></p><a name=\"substance-influenzaavirusadelaware552019cvr45h1n1whole\"> </a><a name=\"hcsubstance-influenzaavirusadelaware552019cvr45h1n1whole\"> </a><div style=\"display: inline-block; background-color: #d9e0e7; padding: 6px; margin: 4px; border: 1px solid #8da1b4; border-radius: 5px; line-height: 60%\"><p style=\"margin-bottom: 0px\"/><p style=\"margin-bottom: 0px\">Profile: <a href=\"https://build.fhir.org/ig/HL7/emedicinal-product-info/StructureDefinition-SubstanceDefinition-uv-epi.html\">SubstanceDefinition (ePI)</a></p></div><p><b>identifier</b>: <code>https://gsrs.ncats.nih.gov/ginas/app/beta/</code>/9V4SVN4JQV\u00a0(use:\u00a0official,\u00a0)</p><p><b>version</b>: 1.0</p><p><b>status</b>: <span title=\"Codes:{http://hl7.org/fhir/publication-status active}\">Active</span></p><p><b>manufacturer</b>: <a href=\"Bundle-bundlepackageleaflet-en-04c9bd6fb89d38b2d83eced2460c4dc1.html#Organization_mah-45fe50eae508b5755dd140ab2093eb5e\">Organization Seqirus Netherlands B.V.</a></p></div>"
      },
      "identifier" : [{
        "use" : "official",
        "system" : "https://gsrs.ncats.nih.gov/ginas/app/beta/",
        "value" : "9V4SVN4JQV"
      }],
      "version" : "1.0",
      "status" : {
        "coding" : [{
          "system" : "http://hl7.org/fhir/publication-status",
          "code" : "active"
        }]
      },
      "manufacturer" : [{
        "reference" : "Organization/mah-45fe50eae508b5755dd140ab2093eb5e"
      }]
    }
  },
  {
    "fullUrl" : "http://hl7.eu/fhir/ig/gravitate-health/SubstanceDefinition/substance-influenzaavirusadarwin112021h3n2whole",
    "resource" : {
      "resourceType" : "SubstanceDefinition",
      "id" : "substance-influenzaavirusadarwin112021h3n2whole",
      "meta" : {
        "profile" : ["http://hl7.org/fhir/uv/emedicinal-product-info/StructureDefinition/SubstanceDefinition-uv-epi"]
      },
      "text" : {
        "status" : "generated",
        "div" : "<div xmlns=\"http://www.w3.org/1999/xhtml\"><a name=\"SubstanceDefinition_substance-influenzaavirusadarwin112021h3n2whole\"> </a><p class=\"res-header-id\"><b>Generated Narrative: SubstanceDefinition substance-influenzaavirusadarwin112021h3n2whole</b></p><a name=\"substance-influenzaavirusadarwin112021h3n2whole\"> </a><a name=\"hcsubstance-influenzaavirusadarwin112021h3n2whole\"> </a><div style=\"display: inline-block; background-color: #d9e0e7; padding: 6px; margin: 4px; border: 1px solid #8da1b4; border-radius: 5px; line-height: 60%\"><p style=\"margin-bottom: 0px\"/><p style=\"margin-bottom: 0px\">Profile: <a href=\"https://build.fhir.org/ig/HL7/emedicinal-product-info/StructureDefinition-SubstanceDefinition-uv-epi.html\">SubstanceDefinition (ePI)</a></p></div><p><b>identifier</b>: <code>https://gsrs.ncats.nih.gov/ginas/app/beta/</code>/JS7E5ZZ3AC\u00a0(use:\u00a0official,\u00a0)</p><p><b>status</b>: <span title=\"Codes:{http://hl7.org/fhir/publication-status active}\">Active</span></p><p><b>manufacturer</b>: <a href=\"Bundle-bundlepackageleaflet-en-04c9bd6fb89d38b2d83eced2460c4dc1.html#Organization_mah-45fe50eae508b5755dd140ab2093eb5e\">Organization Seqirus Netherlands B.V.</a></p></div>"
      },
      "identifier" : [{
        "use" : "official",
        "system" : "https://gsrs.ncats.nih.gov/ginas/app/beta/",
        "value" : "JS7E5ZZ3AC"
      }],
      "status" : {
        "coding" : [{
          "system" : "http://hl7.org/fhir/publication-status",
          "code" : "active"
        }]
      },
      "manufacturer" : [{
        "reference" : "Organization/mah-45fe50eae508b5755dd140ab2093eb5e"
      }]
    }
  },
  {
    "fullUrl" : "http://hl7.eu/fhir/ig/gravitate-health/SubstanceDefinition/substance-influenzabvirusbsingaporewuh46182021whole",
    "resource" : {
      "resourceType" : "SubstanceDefinition",
      "id" : "substance-influenzabvirusbsingaporewuh46182021whole",
      "meta" : {
        "profile" : ["http://hl7.org/fhir/uv/emedicinal-product-info/StructureDefinition/SubstanceDefinition-uv-epi"]
      },
      "text" : {
        "status" : "generated",
        "div" : "<div xmlns=\"http://www.w3.org/1999/xhtml\"><a name=\"SubstanceDefinition_substance-influenzabvirusbsingaporewuh46182021whole\"> </a><p class=\"res-header-id\"><b>Generated Narrative: SubstanceDefinition substance-influenzabvirusbsingaporewuh46182021whole</b></p><a name=\"substance-influenzabvirusbsingaporewuh46182021whole\"> </a><a name=\"hcsubstance-influenzabvirusbsingaporewuh46182021whole\"> </a><div style=\"display: inline-block; background-color: #d9e0e7; padding: 6px; margin: 4px; border: 1px solid #8da1b4; border-radius: 5px; line-height: 60%\"><p style=\"margin-bottom: 0px\"/><p style=\"margin-bottom: 0px\">Profile: <a href=\"https://build.fhir.org/ig/HL7/emedicinal-product-info/StructureDefinition-SubstanceDefinition-uv-epi.html\">SubstanceDefinition (ePI)</a></p></div><p><b>identifier</b>: <code>https://gsrs.ncats.nih.gov/ginas/app/beta/</code>/BFA4LSE5QQ\u00a0(use:\u00a0official,\u00a0)</p><p><b>status</b>: <span title=\"Codes:{http://hl7.org/fhir/publication-status active}\">Active</span></p><p><b>manufacturer</b>: <a href=\"Bundle-bundlepackageleaflet-en-04c9bd6fb89d38b2d83eced2460c4dc1.html#Organization_mah-45fe50eae508b5755dd140ab2093eb5e\">Organization Seqirus Netherlands B.V.</a></p></div>"
      },
      "identifier" : [{
        "use" : "official",
        "system" : "https://gsrs.ncats.nih.gov/ginas/app/beta/",
        "value" : "BFA4LSE5QQ"
      }],
      "status" : {
        "coding" : [{
          "system" : "http://hl7.org/fhir/publication-status",
          "code" : "active"
        }]
      },
      "manufacturer" : [{
        "reference" : "Organization/mah-45fe50eae508b5755dd140ab2093eb5e"
      }]
    }
  },
  {
    "fullUrl" : "http://hl7.eu/fhir/ig/gravitate-health/SubstanceDefinition/substance-influenzabvirusbsingaporeinftt1606102016whole",
    "resource" : {
      "resourceType" : "SubstanceDefinition",
      "id" : "substance-influenzabvirusbsingaporeinftt1606102016whole",
      "meta" : {
        "profile" : ["http://hl7.org/fhir/uv/emedicinal-product-info/StructureDefinition/SubstanceDefinition-uv-epi"]
      },
      "text" : {
        "status" : "generated",
        "div" : "<div xmlns=\"http://www.w3.org/1999/xhtml\"><a name=\"SubstanceDefinition_substance-influenzabvirusbsingaporeinftt1606102016whole\"> </a><p class=\"res-header-id\"><b>Generated Narrative: SubstanceDefinition substance-influenzabvirusbsingaporeinftt1606102016whole</b></p><a name=\"substance-influenzabvirusbsingaporeinftt1606102016whole\"> </a><a name=\"hcsubstance-influenzabvirusbsingaporeinftt1606102016whole\"> </a><div style=\"display: inline-block; background-color: #d9e0e7; padding: 6px; margin: 4px; border: 1px solid #8da1b4; border-radius: 5px; line-height: 60%\"><p style=\"margin-bottom: 0px\"/><p style=\"margin-bottom: 0px\">Profile: <a href=\"https://build.fhir.org/ig/HL7/emedicinal-product-info/StructureDefinition-SubstanceDefinition-uv-epi.html\">SubstanceDefinition (ePI)</a></p></div><p><b>identifier</b>: <code>https://gsrs.ncats.nih.gov/ginas/app/beta/</code>/B3EV5T8SUF\u00a0(use:\u00a0official,\u00a0)</p><p><b>status</b>: <span title=\"Codes:{http://hl7.org/fhir/publication-status active}\">Active</span></p><p><b>manufacturer</b>: <a href=\"Bundle-bundlepackageleaflet-en-04c9bd6fb89d38b2d83eced2460c4dc1.html#Organization_mah-45fe50eae508b5755dd140ab2093eb5e\">Organization Seqirus Netherlands B.V.</a></p></div>"
      },
      "identifier" : [{
        "use" : "official",
        "system" : "https://gsrs.ncats.nih.gov/ginas/app/beta/",
        "value" : "B3EV5T8SUF"
      }],
      "status" : {
        "coding" : [{
          "system" : "http://hl7.org/fhir/publication-status",
          "code" : "active"
        }]
      },
      "manufacturer" : [{
        "reference" : "Organization/mah-45fe50eae508b5755dd140ab2093eb5e"
      }]
    }
  },
  {
    "fullUrl" : "http://hl7.eu/fhir/ig/gravitate-health/AdministrableProductDefinition/ap-04c9bd6fb89d38b2d83eced2460c4dc1",
    "resource" : {
      "resourceType" : "AdministrableProductDefinition",
      "id" : "ap-04c9bd6fb89d38b2d83eced2460c4dc1",
      "meta" : {
        "profile" : ["http://hl7.org/fhir/uv/emedicinal-product-info/StructureDefinition/AdministrableProductDefinition-uv-epi"]
      },
      "text" : {
        "status" : "generated",
        "div" : "<div xmlns=\"http://www.w3.org/1999/xhtml\"><a name=\"AdministrableProductDefinition_ap-04c9bd6fb89d38b2d83eced2460c4dc1\"> </a><p class=\"res-header-id\"><b>Generated Narrative: AdministrableProductDefinition ap-04c9bd6fb89d38b2d83eced2460c4dc1</b></p><a name=\"ap-04c9bd6fb89d38b2d83eced2460c4dc1\"> </a><a name=\"hcap-04c9bd6fb89d38b2d83eced2460c4dc1\"> </a><div style=\"display: inline-block; background-color: #d9e0e7; padding: 6px; margin: 4px; border: 1px solid #8da1b4; border-radius: 5px; line-height: 60%\"><p style=\"margin-bottom: 0px\"/><p style=\"margin-bottom: 0px\">Profile: <a href=\"https://build.fhir.org/ig/HL7/emedicinal-product-info/StructureDefinition-AdministrableProductDefinition-uv-epi.html\">AdministrableProductDefinition (ePI)</a></p></div><p><b>identifier</b>: <code>https://spor.ema.europa.eu/pmswi</code>/xx</p><p><b>status</b>: Active</p><p><b>formOf</b>: <a href=\"Bundle-bundlepackageleaflet-en-04c9bd6fb89d38b2d83eced2460c4dc1.html#MedicinalProductDefinition_mpb6ced64d25ea2c8da6c6099386f14db1\">MedicinalProductDefinition: identifier = https://spor.ema.europa.eu/pmswi#EU/1/18/1326/001,https://www.who-umc.org/phpid#0xF79CABF272B6A7EEF104DDDA44E82717; type = Medicinal Product; domain = Human use; status = active; legalStatusOfSupply = Medicinal product subject to medical prescription</a></p><p><b>administrableDoseForm</b>: <span title=\"Codes:{https://spor.ema.europa.eu/rmswi 100000074063}\">suspension for injection in pre-filled syringe</span></p><p><b>unitOfPresentation</b>: <span title=\"Codes:{https://spor.ema.europa.eu/rmswi 200000002150}\">Syringe</span></p><p><b>producedFrom</b>: <a href=\"Bundle-bundlepackageleaflet-en-04c9bd6fb89d38b2d83eced2460c4dc1.html#ManufacturedItemDefinition_mid-04c9bd6fb89d38b2d83eced2460c4dc1\">ManufacturedItemDefinition: identifier = https://spor.ema.europa.eu/pmswi#EU/1/18/1326/001\u00a0(use:\u00a0official,\u00a0); status = active; manufacturedDoseForm = suspension for injection in pre-filled syringe; unitOfPresentation = Syringe</a></p><blockquote><p><b>routeOfAdministration</b></p><p><b>code</b>: <span title=\"Codes:{https://spor.ema.europa.eu/rmswi 100000073633}\">Subcutaneous use</span></p><h3>TargetSpecies</h3><table class=\"grid\"><tr><td style=\"display: none\">-</td><td><b>Code</b></td></tr><tr><td style=\"display: none\">*</td><td><span title=\"Codes:{https://spor.ema.europa.eu/rmswi 100000109093}\">Human</span></td></tr></table></blockquote></div>"
      },
      "identifier" : [{
        "system" : "https://spor.ema.europa.eu/pmswi",
        "value" : "xx"
      }],
      "status" : "active",
      "formOf" : [{
        "reference" : "MedicinalProductDefinition/mpb6ced64d25ea2c8da6c6099386f14db1"
      }],
      "administrableDoseForm" : {
        "coding" : [{
          "system" : "https://spor.ema.europa.eu/rmswi",
          "code" : "100000074063",
          "display" : "suspension for injection in pre-filled syringe"
        }]
      },
      "unitOfPresentation" : {
        "coding" : [{
          "system" : "https://spor.ema.europa.eu/rmswi",
          "code" : "200000002150",
          "display" : "Syringe"
        }]
      },
      "producedFrom" : [{
        "reference" : "ManufacturedItemDefinition/mid-04c9bd6fb89d38b2d83eced2460c4dc1"
      }],
      "routeOfAdministration" : [{
        "code" : {
          "coding" : [{
            "system" : "https://spor.ema.europa.eu/rmswi",
            "code" : "100000073633",
            "display" : "Subcutaneous use"
          }]
        },
        "targetSpecies" : [{
          "code" : {
            "coding" : [{
              "system" : "https://spor.ema.europa.eu/rmswi",
              "code" : "100000109093",
              "display" : "Human"
            }]
          }
        }]
      }]
    }
  },
  {
    "fullUrl" : "http://hl7.eu/fhir/ig/gravitate-health/RegulatedAuthorization/authorization04c9bd6fb89d38b2d83eced2460c4dc10",
    "resource" : {
      "resourceType" : "RegulatedAuthorization",
      "id" : "authorization04c9bd6fb89d38b2d83eced2460c4dc10",
      "meta" : {
        "profile" : ["http://hl7.org/fhir/uv/emedicinal-product-info/StructureDefinition/RegulatedAuthorization-uv-epi"]
      },
      "text" : {
        "status" : "generated",
        "div" : "<div xmlns=\"http://www.w3.org/1999/xhtml\"><a name=\"RegulatedAuthorization_authorization04c9bd6fb89d38b2d83eced2460c4dc10\"> </a><p class=\"res-header-id\"><b>Generated Narrative: RegulatedAuthorization authorization04c9bd6fb89d38b2d83eced2460c4dc10</b></p><a name=\"authorization04c9bd6fb89d38b2d83eced2460c4dc10\"> </a><a name=\"hcauthorization04c9bd6fb89d38b2d83eced2460c4dc10\"> </a><div style=\"display: inline-block; background-color: #d9e0e7; padding: 6px; margin: 4px; border: 1px solid #8da1b4; border-radius: 5px; line-height: 60%\"><p style=\"margin-bottom: 0px\"/><p style=\"margin-bottom: 0px\">Profile: <a href=\"https://build.fhir.org/ig/HL7/emedicinal-product-info/StructureDefinition-RegulatedAuthorization-uv-epi.html\">RegulatedAuthorization (ePI)</a></p></div><p><b>identifier</b>: <code>https://spor.ema.europa.eu/pmswi</code>/EU/1/18/1326/001\u00a0(use:\u00a0official,\u00a0)</p><p><b>subject</b>: <a href=\"Bundle-bundlepackageleaflet-en-04c9bd6fb89d38b2d83eced2460c4dc1.html#MedicinalProductDefinition_mpb6ced64d25ea2c8da6c6099386f14db1\">MedicinalProductDefinition: identifier = https://spor.ema.europa.eu/pmswi#EU/1/18/1326/001,https://www.who-umc.org/phpid#0xF79CABF272B6A7EEF104DDDA44E82717; type = Medicinal Product; domain = Human use; status = active; legalStatusOfSupply = Medicinal product subject to medical prescription</a></p><p><b>type</b>: <span title=\"Codes:{https://spor.ema.europa.eu/rmswi 100000072062}\">Marketing Authorisation</span></p><p><b>status</b>: <span title=\"Codes:{http://hl7.org/fhir/publication-status active}\">Active</span></p><p><b>statusDate</b>: 2019-01-01</p><p><b>holder</b>: <a href=\"Bundle-bundlepackageleaflet-en-04c9bd6fb89d38b2d83eced2460c4dc1.html#Organization_mah-45fe50eae508b5755dd140ab2093eb5e\">Organization Seqirus Netherlands B.V.</a></p></div>"
      },
      "identifier" : [{
        "use" : "official",
        "system" : "https://spor.ema.europa.eu/pmswi",
        "value" : "EU/1/18/1326/001"
      }],
      "subject" : [{
        "reference" : "MedicinalProductDefinition/mpb6ced64d25ea2c8da6c6099386f14db1"
      }],
      "type" : {
        "coding" : [{
          "system" : "https://spor.ema.europa.eu/rmswi",
          "code" : "100000072062",
          "display" : "Marketing Authorisation"
        }]
      },
      "status" : {
        "coding" : [{
          "system" : "http://hl7.org/fhir/publication-status",
          "code" : "active",
          "display" : "Active"
        }]
      },
      "statusDate" : "2019-01-01",
      "holder" : {
        "reference" : "Organization/mah-45fe50eae508b5755dd140ab2093eb5e"
      }
    }
  },
  {
    "fullUrl" : "http://hl7.eu/fhir/ig/gravitate-health/Organization/mah-45fe50eae508b5755dd140ab2093eb5e",
    "resource" : {
      "resourceType" : "Organization",
      "id" : "mah-45fe50eae508b5755dd140ab2093eb5e",
      "meta" : {
        "profile" : ["http://hl7.org/fhir/uv/emedicinal-product-info/StructureDefinition/Organization-uv-epi"]
      },
      "text" : {
        "status" : "generated",
        "div" : "<div xmlns=\"http://www.w3.org/1999/xhtml\"><a name=\"Organization_mah-45fe50eae508b5755dd140ab2093eb5e\"> </a><p class=\"res-header-id\"><b>Generated Narrative: Organization mah-45fe50eae508b5755dd140ab2093eb5e</b></p><a name=\"mah-45fe50eae508b5755dd140ab2093eb5e\"> </a><a name=\"hcmah-45fe50eae508b5755dd140ab2093eb5e\"> </a><div style=\"display: inline-block; background-color: #d9e0e7; padding: 6px; margin: 4px; border: 1px solid #8da1b4; border-radius: 5px; line-height: 60%\"><p style=\"margin-bottom: 0px\"/><p style=\"margin-bottom: 0px\">Profile: <a href=\"https://build.fhir.org/ig/HL7/emedicinal-product-info/StructureDefinition-Organization-uv-epi.html\">Organization (ePI)</a></p></div><p><b>identifier</b>: <code>https://spor.ema.europa.eu/omswi</code>/ORG-100013715\u00a0(use:\u00a0official,\u00a0)</p><p><b>active</b>: true</p><p><b>type</b>: <span title=\"Codes:{https://spor.ema.europa.eu/rmswi 220000000034}\">Marketing authorisation holder</span></p><p><b>name</b>: Seqirus Netherlands B.V.</p><h3>Contacts</h3><table class=\"grid\"><tr><td style=\"display: none\">-</td><td><b>Address</b></td></tr><tr><td style=\"display: none\">*</td><td>Paasheuvelweg 28 1105BJ Amsterdam Netherlands(work)</td></tr></table></div>"
      },
      "identifier" : [{
        "use" : "official",
        "system" : "https://spor.ema.europa.eu/omswi",
        "value" : "ORG-100013715"
      }],
      "active" : true,
      "type" : [{
        "coding" : [{
          "system" : "https://spor.ema.europa.eu/rmswi",
          "code" : "220000000034",
          "display" : "Marketing authorisation holder"
        }]
      }],
      "name" : "Seqirus Netherlands B.V.",
      "contact" : [{
        "address" : {
          "use" : "work",
          "type" : "physical",
          "text" : "Paasheuvelweg 28 1105BJ Amsterdam Netherlands",
          "line" : ["Paasheuvelweg 28"],
          "city" : "1105BJ Amsterdam",
          "postalCode" : "367061",
          "country" : "Netherlands"
        }
      }]
    }
  },
  {
    "fullUrl" : "http://hl7.eu/fhir/ig/gravitate-health/PackagedProductDefinition/ppd-a854b6fee6a8536c78c604a4b9f6c395",
    "resource" : {
      "resourceType" : "PackagedProductDefinition",
      "id" : "ppd-a854b6fee6a8536c78c604a4b9f6c395",
      "meta" : {
        "profile" : ["http://hl7.org/fhir/uv/emedicinal-product-info/StructureDefinition/PackagedProductDefinition-uv-epi"]
      },
      "text" : {
        "status" : "generated",
        "div" : "<div xmlns=\"http://www.w3.org/1999/xhtml\"><a name=\"PackagedProductDefinition_ppd-a854b6fee6a8536c78c604a4b9f6c395\"> </a><p class=\"res-header-id\"><b>Generated Narrative: PackagedProductDefinition ppd-a854b6fee6a8536c78c604a4b9f6c395</b></p><a name=\"ppd-a854b6fee6a8536c78c604a4b9f6c395\"> </a><a name=\"hcppd-a854b6fee6a8536c78c604a4b9f6c395\"> </a><div style=\"display: inline-block; background-color: #d9e0e7; padding: 6px; margin: 4px; border: 1px solid #8da1b4; border-radius: 5px; line-height: 60%\"><p style=\"margin-bottom: 0px\"/><p style=\"margin-bottom: 0px\">Profile: <a href=\"https://build.fhir.org/ig/HL7/emedicinal-product-info/StructureDefinition-PackagedProductDefinition-uv-epi.html\">PackagedProductDefinition (ePI)</a></p></div><p><b>name</b>: Flucelvax Tetra - suspension for injection in pre-filled syringe\nInfluenza vaccine (surface antigen, inactivated, prepared in cell cultures) 1</p><p><b>type</b>: <span title=\"Codes:{https://spor.ema.europa.eu/rmswi 100000155527}\">100000155527</span></p><p><b>packageFor</b>: <a href=\"Bundle-bundlepackageleaflet-en-04c9bd6fb89d38b2d83eced2460c4dc1.html#MedicinalProductDefinition_mpb6ced64d25ea2c8da6c6099386f14db1\">MedicinalProductDefinition: identifier = https://spor.ema.europa.eu/pmswi#EU/1/18/1326/001,https://www.who-umc.org/phpid#0xF79CABF272B6A7EEF104DDDA44E82717; type = Medicinal Product; domain = Human use; status = active; legalStatusOfSupply = Medicinal product subject to medical prescription</a></p><p><b>status</b>: <span title=\"Codes:{http://hl7.org/fhir/publication-status active}\">Active</span></p><p><b>statusDate</b>: 2019-01-01</p><p><b>containedItemQuantity</b>: 15 ug<span style=\"background: LightGoldenRodYellow\"> (Details: UCUM  codeug = 'ug')</span></p><p><b>copackagedIndicator</b>: true</p><blockquote><p><b>packaging</b></p><p><b>type</b>: <span title=\"Codes:{https://spor.ema.europa.eu/rmswi 100000073498}\">Box</span></p><p><b>quantity</b>: 1</p><p><b>material</b>: <span title=\"Codes:{https://spor.ema.europa.eu/rmswi 200000003529}\">Cardboard</span></p><blockquote><p><b>packaging</b></p><p><b>identifier</b>: <code>https://spor.ema.europa.eu/pmswi</code>/xxxx</p><p><b>type</b>: <span title=\"Codes:{https://spor.ema.europa.eu/rmswi 100000073498}\">100000073498</span></p><p><b>quantity</b>: 1</p><p><b>material</b>: <span title=\"Codes:{https://spor.ema.europa.eu/rmswi 200000003529}\">Cardboard</span></p><blockquote><p><b>containedItem</b></p><h3>Items</h3><table class=\"grid\"><tr><td style=\"display: none\">-</td><td><b>Reference</b></td></tr><tr><td style=\"display: none\">*</td><td><a href=\"Bundle-bundlepackageleaflet-en-04c9bd6fb89d38b2d83eced2460c4dc1.html#ManufacturedItemDefinition_mid-04c9bd6fb89d38b2d83eced2460c4dc1\">ManufacturedItemDefinition: identifier = https://spor.ema.europa.eu/pmswi#EU/1/18/1326/001\u00a0(use:\u00a0official,\u00a0); status = active; manufacturedDoseForm = suspension for injection in pre-filled syringe; unitOfPresentation = Syringe</a></td></tr></table></blockquote></blockquote></blockquote></div>"
      },
      "name" : "Flucelvax Tetra - suspension for injection in pre-filled syringe\nInfluenza vaccine (surface antigen, inactivated, prepared in cell cultures) 1",
      "type" : {
        "coding" : [{
          "system" : "https://spor.ema.europa.eu/rmswi",
          "code" : "100000155527"
        }]
      },
      "packageFor" : [{
        "reference" : "MedicinalProductDefinition/mpb6ced64d25ea2c8da6c6099386f14db1"
      }],
      "status" : {
        "coding" : [{
          "system" : "http://hl7.org/fhir/publication-status",
          "code" : "active",
          "display" : "Active"
        }]
      },
      "statusDate" : "2019-01-01",
      "containedItemQuantity" : [{
        "value" : 15,
        "system" : "http://unitsofmeasure.org",
        "code" : "ug"
      }],
      "copackagedIndicator" : true,
      "packaging" : {
        "type" : {
          "coding" : [{
            "system" : "https://spor.ema.europa.eu/rmswi",
            "code" : "100000073498",
            "display" : "Box"
          }]
        },
        "quantity" : 1,
        "material" : [{
          "coding" : [{
            "system" : "https://spor.ema.europa.eu/rmswi",
            "code" : "200000003529",
            "display" : "Cardboard"
          }]
        }],
        "packaging" : [{
          "identifier" : [{
            "system" : "https://spor.ema.europa.eu/pmswi",
            "value" : "xxxx"
          }],
          "type" : {
            "coding" : [{
              "system" : "https://spor.ema.europa.eu/rmswi",
              "code" : "100000073498",
              "display" : "100000073498"
            }]
          },
          "quantity" : 1,
          "material" : [{
            "coding" : [{
              "system" : "https://spor.ema.europa.eu/rmswi",
              "code" : "200000003529",
              "display" : "Cardboard"
            }]
          }],
          "containedItem" : [{
            "item" : {
              "reference" : {
                "reference" : "ManufacturedItemDefinition/mid-04c9bd6fb89d38b2d83eced2460c4dc1"
              }
            }
          }]
        }]
      }
    }
  },
  {
    "fullUrl" : "http://hl7.eu/fhir/ig/gravitate-health/MedicinalProductDefinition/mpb6ced64d25ea2c8da6c6099386f14db1",
    "resource" : {
      "resourceType" : "MedicinalProductDefinition",
      "id" : "mpb6ced64d25ea2c8da6c6099386f14db1",
      "meta" : {
        "profile" : ["http://hl7.org/fhir/uv/emedicinal-product-info/StructureDefinition/MedicinalProductDefinition-uv-epi"]
      },
      "text" : {
        "status" : "generated",
        "div" : "<div xmlns=\"http://www.w3.org/1999/xhtml\"><a name=\"MedicinalProductDefinition_mpb6ced64d25ea2c8da6c6099386f14db1\"> </a><p class=\"res-header-id\"><b>Generated Narrative: MedicinalProductDefinition mpb6ced64d25ea2c8da6c6099386f14db1</b></p><a name=\"mpb6ced64d25ea2c8da6c6099386f14db1\"> </a><a name=\"hcmpb6ced64d25ea2c8da6c6099386f14db1\"> </a><div style=\"display: inline-block; background-color: #d9e0e7; padding: 6px; margin: 4px; border: 1px solid #8da1b4; border-radius: 5px; line-height: 60%\"><p style=\"margin-bottom: 0px\"/><p style=\"margin-bottom: 0px\">Profile: <a href=\"https://build.fhir.org/ig/HL7/emedicinal-product-info/StructureDefinition-MedicinalProductDefinition-uv-epi.html\">MedicinalProductDefinition (ePI)</a></p></div><p><b>identifier</b>: <code>https://spor.ema.europa.eu/pmswi</code>/EU/1/18/1326/001, <code>https://www.who-umc.org/phpid</code>/0xF79CABF272B6A7EEF104DDDA44E82717</p><p><b>type</b>: <span title=\"Codes:{http://hl7.org/fhir/medicinal-product-type MedicinalProduct}\">Medicinal Product</span></p><p><b>domain</b>: <span title=\"Codes:{http://hl7.org/fhir/medicinal-product-domain Human}\">Human use</span></p><p><b>status</b>: <span title=\"Codes:{http://hl7.org/fhir/publication-status active}\">active</span></p><p><b>legalStatusOfSupply</b>: <span title=\"Codes:{https://spor.ema.europa.eu/rmswi 100000000000}\">Medicinal product subject to medical prescription</span></p><blockquote><p><b>name</b></p><p><b>productName</b>: Flucelvax Tetra - suspension for injection in pre-filled syringe\nInfluenza vaccine (surface antigen, inactivated, prepared in cell cultures)</p><p><b>type</b>: <span title=\"Codes:{https://spor.ema.europa.eu/lists/220000000000 220000000001}\">Full name</span></p><blockquote><p><b>part</b></p><p><b>part</b>: Flucelvax Tetra</p><p><b>type</b>: <span title=\"Codes:{https://spor.ema.europa.eu/lists/220000000000 220000000002}\">Invented name part</span></p></blockquote><blockquote><p><b>part</b></p><p><b>part</b>: Influenza vaccine (surface antigen, inactivated, prepared in cell cultures)</p><p><b>type</b>: <span title=\"Codes:{https://spor.ema.europa.eu/lists/220000000000 220000000003}\">Scientific name part</span></p></blockquote><blockquote><p><b>part</b></p><p><b>part</b>: 15 ug</p><p><b>type</b>: <span title=\"Codes:{https://spor.ema.europa.eu/lists/220000000000 220000000004}\">Strength part</span></p></blockquote><blockquote><p><b>part</b></p><p><b>part</b>: Solution for injection</p><p><b>type</b>: <span title=\"Codes:{https://spor.ema.europa.eu/lists/220000000000 220000000005}\">Pharmaceutical dose form part</span></p></blockquote><h3>Usages</h3><table class=\"grid\"><tr><td style=\"display: none\">-</td><td><b>Country</b></td><td><b>Jurisdiction</b></td><td><b>Language</b></td></tr><tr><td style=\"display: none\">*</td><td><span title=\"Codes:{urn:iso:std:iso:3166 ES}\">Spain</span></td><td><span title=\"Codes:{urn:iso:std:iso:3166 ES}\">Spain</span></td><td><span title=\"Codes:{urn:ietf:bcp:47 en}\">English</span></td></tr></table></blockquote></div>"
      },
      "identifier" : [{
        "system" : "https://spor.ema.europa.eu/pmswi",
        "value" : "EU/1/18/1326/001"
      },
      {
        "system" : "https://www.who-umc.org/phpid",
        "value" : "0xF79CABF272B6A7EEF104DDDA44E82717"
      }],
      "type" : {
        "coding" : [{
          "system" : "http://hl7.org/fhir/medicinal-product-type",
          "code" : "MedicinalProduct",
          "display" : "Medicinal Product"
        }]
      },
      "domain" : {
        "coding" : [{
          "system" : "http://hl7.org/fhir/medicinal-product-domain",
          "code" : "Human",
          "display" : "Human use"
        }]
      },
      "status" : {
        "coding" : [{
          "system" : "http://hl7.org/fhir/publication-status",
          "code" : "active",
          "display" : "active"
        }]
      },
      "legalStatusOfSupply" : {
        "coding" : [{
          "system" : "https://spor.ema.europa.eu/rmswi",
          "code" : "100000000000",
          "display" : "Medicinal product subject to medical prescription"
        }]
      },
      "name" : [{
        "productName" : "Flucelvax Tetra - suspension for injection in pre-filled syringe\nInfluenza vaccine (surface antigen, inactivated, prepared in cell cultures)",
        "type" : {
          "coding" : [{
            "system" : "https://spor.ema.europa.eu/lists/220000000000",
            "code" : "220000000001",
            "display" : "Full name"
          }]
        },
        "part" : [{
          "part" : "Flucelvax Tetra",
          "type" : {
            "coding" : [{
              "system" : "https://spor.ema.europa.eu/lists/220000000000",
              "code" : "220000000002",
              "display" : "Invented name part"
            }]
          }
        },
        {
          "part" : "Influenza vaccine (surface antigen, inactivated, prepared in cell cultures)",
          "type" : {
            "coding" : [{
              "system" : "https://spor.ema.europa.eu/lists/220000000000",
              "code" : "220000000003",
              "display" : "Scientific name part"
            }]
          }
        },
        {
          "part" : "15 ug",
          "type" : {
            "coding" : [{
              "system" : "https://spor.ema.europa.eu/lists/220000000000",
              "code" : "220000000004",
              "display" : "Strength part"
            }]
          }
        },
        {
          "part" : "Solution for injection",
          "type" : {
            "coding" : [{
              "system" : "https://spor.ema.europa.eu/lists/220000000000",
              "code" : "220000000005",
              "display" : "Pharmaceutical dose form part"
            }]
          }
        }],
        "usage" : [{
          "country" : {
            "coding" : [{
              "system" : "urn:iso:std:iso:3166",
              "code" : "ES",
              "display" : "Spain"
            }]
          },
          "jurisdiction" : {
            "coding" : [{
              "system" : "urn:iso:std:iso:3166",
              "code" : "ES",
              "display" : "Spain"
            }]
          },
          "language" : {
            "coding" : [{
              "system" : "urn:ietf:bcp:47",
              "code" : "en",
              "display" : "English"
            }]
          }
        }]
      }]
    }
  },
  {
    "fullUrl" : "http://hl7.eu/fhir/ig/gravitate-health/ManufacturedItemDefinition/mid-04c9bd6fb89d38b2d83eced2460c4dc1",
    "resource" : {
      "resourceType" : "ManufacturedItemDefinition",
      "id" : "mid-04c9bd6fb89d38b2d83eced2460c4dc1",
      "meta" : {
        "profile" : ["http://hl7.org/fhir/uv/emedicinal-product-info/StructureDefinition/ManufacturedItemDefinition-uv-epi"]
      },
      "text" : {
        "status" : "generated",
        "div" : "<div xmlns=\"http://www.w3.org/1999/xhtml\"><a name=\"ManufacturedItemDefinition_mid-04c9bd6fb89d38b2d83eced2460c4dc1\"> </a><p class=\"res-header-id\"><b>Generated Narrative: ManufacturedItemDefinition mid-04c9bd6fb89d38b2d83eced2460c4dc1</b></p><a name=\"mid-04c9bd6fb89d38b2d83eced2460c4dc1\"> </a><a name=\"hcmid-04c9bd6fb89d38b2d83eced2460c4dc1\"> </a><div style=\"display: inline-block; background-color: #d9e0e7; padding: 6px; margin: 4px; border: 1px solid #8da1b4; border-radius: 5px; line-height: 60%\"><p style=\"margin-bottom: 0px\"/><p style=\"margin-bottom: 0px\">Profile: <a href=\"https://build.fhir.org/ig/HL7/emedicinal-product-info/StructureDefinition-ManufacturedItemDefinition-uv-epi.html\">ManufacturedItemDefinition (ePI)</a></p></div><p><b>identifier</b>: <code>https://spor.ema.europa.eu/pmswi</code>/EU/1/18/1326/001\u00a0(use:\u00a0official,\u00a0)</p><p><b>status</b>: Active</p><p><b>manufacturedDoseForm</b>: <span title=\"Codes:{https://spor.ema.europa.eu/rmswi/ 100000074063}\">suspension for injection in pre-filled syringe</span></p><p><b>unitOfPresentation</b>: <span title=\"Codes:{https://spor.ema.europa.eu/rmswi 200000002150}\">Syringe</span></p></div>"
      },
      "identifier" : [{
        "use" : "official",
        "system" : "https://spor.ema.europa.eu/pmswi",
        "value" : "EU/1/18/1326/001"
      }],
      "status" : "active",
      "manufacturedDoseForm" : {
        "coding" : [{
          "system" : "https://spor.ema.europa.eu/rmswi/",
          "code" : "100000074063",
          "display" : "suspension for injection in pre-filled syringe"
        }]
      },
      "unitOfPresentation" : {
        "coding" : [{
          "system" : "https://spor.ema.europa.eu/rmswi",
          "code" : "200000002150",
          "display" : "Syringe"
        }]
      }
    }
  }]
}